timestamp_before,timestamp_after,accel_x,accel_y,accel_z,gyro_x,gyro_y,gryo_z
1491431982.0429599285,1491431982.0453379154, -0.1974,  0.0229, -0.0170,  0.0693, -0.0031, -0.0189
1491431982.0457921028,1491431982.0480940342, -0.1974,  0.0039,  0.0202,  0.0615, -0.0186, -0.0221
1491431982.0484669209,1491431982.0507600307, -0.1965,  0.0039,  0.0202,  0.0563, -0.0186, -0.0221
1491431982.0511291027,1491431982.0534250736, -0.1965,  0.0039,  0.0202,  0.0563, -0.0186, -0.0221
1491431982.0537939072,1491431982.0562169552, -0.1965,  0.0039,  0.0202,  0.0563, -0.0186, -0.0221
1491431982.0565869808,1491431982.0588860512, -0.1965,  0.0039,  0.0202,  0.0529, -0.0266, -0.0248
1491431982.0592548847,1491431982.0615539551, -0.2044,  0.0046,  0.0306,  0.0529, -0.0266, -0.0248
1491431982.0619220734,1491431982.0643129349, -0.2044,  0.0046,  0.0306,  0.0529, -0.0266, -0.0248
1491431982.0646829605,1491431982.0669879913, -0.2044,  0.0046,  0.0306,  0.0529, -0.0266, -0.0248
1491431982.0673561096,1491431982.0696599483, -0.2044,  0.0046,  0.0306,  0.0621, -0.0161, -0.0236
1491431982.0700280666,1491431982.0723309517, -0.2044,  0.0046,  0.0306,  0.0621, -0.0161, -0.0236
1491431982.0727000237,1491431982.0750689507, -0.2044,  0.0046,  0.0306,  0.0621, -0.0161, -0.0236
1491431982.0754389763,1491431982.0777399540, -0.2044,  0.0046,  0.0306,  0.0621, -0.0161, -0.0236
1491431982.0781080723,1491431982.0804131031, -0.1938,  0.0072, -0.0021,  0.0651, -0.0140, -0.0271
1491431982.0807809830,1491431982.0830819607, -0.1938,  0.0072, -0.0021,  0.0651, -0.0140, -0.0271
1491431982.0834510326,1491431982.0865108967, -0.1938,  0.0072, -0.0021,  0.0651, -0.0140, -0.0271
1491431982.0868990421,1491431982.0899310112, -0.1938,  0.0072, -0.0021,  0.0596, -0.0138, -0.0317
1491431982.0903339386,1491431982.0927650928, -0.1938,  0.0072, -0.0021,  0.0596, -0.0138, -0.0317
1491431982.0931439400,1491431982.0955119133, -0.1938,  0.0072, -0.0021,  0.0596, -0.0138, -0.0317
1491431982.0958809853,1491431982.0981879234, -0.1938,  0.0072, -0.0021,  0.0596, -0.0138, -0.0317
1491431982.0985569954,1491431982.1008579731, -0.1880,  0.0036, -0.0030,  0.0533, -0.0204, -0.0315
1491431982.1012299061,1491431982.1035280228, -0.1880,  0.0036, -0.0030,  0.0533, -0.0204, -0.0315
1491431982.1038959026,1491431982.1063179970, -0.1880,  0.0036, -0.0030,  0.0533, -0.0204, -0.0315
1491431982.1066880226,1491431982.1089909077, -0.1880,  0.0036, -0.0030,  0.0533, -0.0204, -0.0315
1491431982.1093599796,1491431982.1116631031, -0.1880,  0.0036, -0.0030,  0.0499, -0.0270, -0.0315
1491431982.1120319366,1491431982.1143651009, -0.1880,  0.0036, -0.0030,  0.0499, -0.0270, -0.0315
1491431982.1147439480,1491431982.1171669960, -0.1880,  0.0036, -0.0030,  0.0499, -0.0270, -0.0315
1491431982.1175429821,1491431982.1199738979, -0.1880,  0.0009, -0.0036,  0.0499, -0.0348, -0.0316
1491431982.1204559803,1491431982.1228830814, -0.1884,  0.0009, -0.0036,  0.0466, -0.0315, -0.0316
1491431982.1232600212,1491431982.1256480217, -0.1884,  0.0009, -0.0036,  0.0466, -0.0315, -0.0316
1491431982.1260199547,1491431982.1283240318, -0.1884,  0.0009, -0.0036,  0.0466, -0.0315, -0.0316
1491431982.1286931038,1491431982.1309950352, -0.1884,  0.0009, -0.0036,  0.0388, -0.0350, -0.0309
1491431982.1313650608,1491431982.1336760521, -0.1884,  0.0009, -0.0036,  0.0388, -0.0350, -0.0309
1491431982.1340448856,1491431982.1365160942, -0.1884,  0.0009, -0.0036,  0.0388, -0.0350, -0.0309
1491431982.1368939877,1491431982.1393229961, -0.1884,  0.0009,  0.0063,  0.0388, -0.0350, -0.0309
1491431982.1396999359,1491431982.1421310902, -0.1922,  0.0030,  0.0063,  0.0345, -0.0327, -0.0310
1491431982.1425070763,1491431982.1449460983, -0.1922,  0.0030,  0.0063,  0.0345, -0.0327, -0.0310
1491431982.1453239918,1491431982.1477560997, -0.1922,  0.0030,  0.0063,  0.0345, -0.0327, -0.0310
1491431982.1481320858,1491431982.1505670547, -0.1922,  0.0030,  0.0063,  0.0345, -0.0327, -0.0306
1491431982.1509430408,1491431982.1533699036, -0.1922,  0.0030,  0.0063,  0.0321, -0.0286, -0.0306
1491431982.1537458897,1491431982.1560881138, -0.1922,  0.0030,  0.0063,  0.0321, -0.0286, -0.0306
1491431982.1564590931,1491431982.1587669849, -0.1922,  0.0030,  0.0023,  0.0321, -0.0286, -0.0306
1491431982.1592879295,1491431982.1615850925, -0.1894,  0.0016,  0.0023,  0.0284, -0.0274, -0.0309
1491431982.1619551182,1491431982.1644198895, -0.1894,  0.0016,  0.0023,  0.0284, -0.0274, -0.0309
1491431982.1647899151,1491431982.1670889854, -0.1894,  0.0016,  0.0023,  0.0284, -0.0274, -0.0309
1491431982.1674580574,1491431982.1697640419, -0.1894,  0.0016,  0.0023,  0.0284, -0.0274, -0.0309
1491431982.1701331139,1491431982.1724410057, -0.1894,  0.0016,  0.0023,  0.0233, -0.0255, -0.0316
1491431982.1728138924,1491431982.1754219532, -0.1894,  0.0016,  0.0023,  0.0233, -0.0255, -0.0316
1491431982.1757910252,1491431982.1781020164, -0.1894,  0.0016,  0.0023,  0.0233, -0.0255, -0.0316
1491431982.1784720421,1491431982.1807730198, -0.1898,  0.0012,  0.0069,  0.0233, -0.0255, -0.0316
1491431982.1811420918,1491431982.1834459305, -0.1898,  0.0012,  0.0069,  0.0229, -0.0227, -0.0316
1491431982.1838181019,1491431982.1862440109, -0.1898,  0.0012,  0.0069,  0.0229, -0.0227, -0.0316
1491431982.1866219044,1491431982.1890459061, -0.1898,  0.0012,  0.0069,  0.0229, -0.0227, -0.0316
1491431982.1894218922,1491431982.1918408871, -0.1898,  0.0012,  0.0069,  0.0229, -0.0227, -0.0329
1491431982.1922180653,1491431982.1946589947, -0.1898,  0.0012,  0.0069,  0.0215, -0.0212, -0.0329
1491431982.1950368881,1491431982.1974649429, -0.1898,  0.0012,  0.0069,  0.0215, -0.0212, -0.0329
1491431982.1978409290,1491431982.2002730370, -0.1897,  0.0011,  0.0041,  0.0215, -0.0212, -0.0329
1491431982.2006499767,1491431982.2030730247, -0.1897,  0.0011,  0.0041,  0.0198, -0.0203, -0.0343
1491431982.2034480572,1491431982.2059431076, -0.1897,  0.0011,  0.0041,  0.0198, -0.0203, -0.0343
1491431982.2063210011,1491431982.2087550163, -0.1897,  0.0011,  0.0041,  0.0198, -0.0203, -0.0343
1491431982.2091329098,1491431982.2115581036, -0.1897,  0.0011,  0.0041,  0.0198, -0.0203, -0.0343
1491431982.2119359970,1491431982.2143700123, -0.1897,  0.0011,  0.0041,  0.0200, -0.0207, -0.0342
1491431982.2147479057,1491431982.2172720432, -0.1897,  0.0011,  0.0041,  0.0200, -0.0207, -0.0342
1491431982.2176430225,1491431982.2199459076, -0.1891, -0.0037,  0.0054,  0.0200, -0.0207, -0.0342
1491431982.2203149796,1491431982.2226209641, -0.1891, -0.0037,  0.0054,  0.0200, -0.0207, -0.0339
1491431982.2229900360,1491431982.2254359722, -0.1891, -0.0037,  0.0054,  0.0139, -0.0210, -0.0339
1491431982.2258069515,1491431982.2281069756, -0.1891, -0.0037,  0.0054,  0.0139, -0.0210, -0.0339
1491431982.2284770012,1491431982.2308640480, -0.1891, -0.0037,  0.0054,  0.0139, -0.0210, -0.0339
1491431982.2312328815,1491431982.2335329056, -0.1891, -0.0037,  0.0054,  0.0011, -0.0213, -0.0311
1491431982.2346689701,1491431982.2370998859, -0.1891, -0.0037,  0.0054,  0.0011, -0.0213, -0.0311
1491431982.2374799252,1491431982.2399079800, -0.1899, -0.0153,  0.0151,  0.0011, -0.0213, -0.0311
1491431982.2402861118,1491431982.2427120209, -0.1899, -0.0153,  0.0151,  0.0011, -0.0213, -0.0311
1491431982.2430870533,1491431982.2454519272, -0.1899, -0.0153,  0.0151, -0.0268, -0.0184, -0.0244
1491431982.2458200455,1491431982.2481191158, -0.1899, -0.0153,  0.0151, -0.0268, -0.0184, -0.0244
1491431982.2484860420,1491431982.2507879734, -0.1899, -0.0153,  0.0151, -0.0268, -0.0184, -0.0244
1491431982.2511560917,1491431982.2534620762, -0.1899, -0.0153,  0.0151, -0.0268, -0.0184, -0.0172
1491431982.2538299561,1491431982.2562510967, -0.1899, -0.0153,  0.0151, -0.0596, -0.0134, -0.0172
1491431982.2566258907,1491431982.2590680122, -0.1810,  0.0113, -0.0125, -0.0596, -0.0134, -0.0172
1491431982.2594399452,1491431982.2620649338, -0.1810,  0.0113, -0.0125, -0.0596, -0.0134, -0.0172
1491431982.2624440193,1491431982.2648708820, -0.1810,  0.0113, -0.0125, -0.0640, -0.0167, -0.0182
1491431982.2652390003,1491431982.2675459385, -0.1810,  0.0113, -0.0125, -0.0640, -0.0167, -0.0182
1491431982.2679131031,1491431982.2702178955, -0.1810,  0.0113, -0.0125, -0.0640, -0.0167, -0.0182
1491431982.2705879211,1491431982.2728910446, -0.1810,  0.0113, -0.0125, -0.0640, -0.0167, -0.0182
1491431982.2733860016,1491431982.2756950855, -0.1810,  0.0113, -0.0125, -0.0531, -0.0235, -0.0264
1491431982.2760651112,1491431982.2783679962, -0.1888, -0.0017, -0.0044, -0.0531, -0.0235, -0.0264
1491431982.2787361145,1491431982.2810399532, -0.1899, -0.0017, -0.0044, -0.0531, -0.0235, -0.0264
1491431982.2814090252,1491431982.2837090492, -0.1899, -0.0017, -0.0044, -0.0531, -0.0235, -0.0264
1491431982.2842199802,1491431982.2865219116, -0.1899, -0.0017, -0.0044, -0.0535, -0.0232, -0.0300
1491431982.2868900299,1491431982.2891919613, -0.1899, -0.0017, -0.0044, -0.0535, -0.0232, -0.0300
1491431982.2895588875,1491431982.2918629646, -0.1899, -0.0017, -0.0044, -0.0535, -0.0232, -0.0300
1491431982.2922298908,1491431982.2947080135, -0.1899, -0.0017, -0.0044, -0.0535, -0.0232, -0.0280
1491431982.2950839996,1491431982.2975161076, -0.1899, -0.0017,  0.0126, -0.0529, -0.0220, -0.0280
1491431982.2978940010,1491431982.3003230095, -0.1923, -0.0070,  0.0126, -0.0529, -0.0220, -0.0280
1491431982.3006999493,1491431982.3031270504, -0.1923, -0.0070,  0.0126, -0.0529, -0.0220, -0.0280
1491431982.3035039902,1491431982.3059399128, -0.1923, -0.0070,  0.0126, -0.0606, -0.0199, -0.0250
1491431982.3063170910,1491431982.3087410927, -0.1923, -0.0070,  0.0126, -0.0606, -0.0199, -0.0250
1491431982.3091158867,1491431982.3115448952, -0.1923, -0.0070,  0.0126, -0.0606, -0.0199, -0.0250
1491431982.3119208813,1491431982.3143560886, -0.1923, -0.0070,  0.0126, -0.0606, -0.0199, -0.0250
1491431982.3147249222,1491431982.3170258999, -0.1923, -0.0070, -0.0108, -0.0464, -0.0187, -0.0313
1491431982.3173959255,1491431982.3196940422, -0.1884,  0.0048, -0.0121, -0.0464, -0.0187, -0.0313
1491431982.3200619221,1491431982.3223700523, -0.1884,  0.0048, -0.0121, -0.0464, -0.0187, -0.0313
1491431982.3227379322,1491431982.3250839710, -0.1884,  0.0048, -0.0121, -0.0464, -0.0187, -0.0313
1491431982.3254520893,1491431982.3277509212, -0.1884,  0.0048, -0.0121, -0.0434, -0.0179, -0.0369
1491431982.3281190395,1491431982.3304200172, -0.1884,  0.0048, -0.0121, -0.0434, -0.0179, -0.0369
1491431982.3307890892,1491431982.3330960274, -0.1884,  0.0048, -0.0121, -0.0434, -0.0179, -0.0369
1491431982.3334660530,1491431982.3359169960, -0.1884,  0.0048, -0.0121, -0.0434, -0.0179, -0.0378
1491431982.3362939358,1491431982.3387210369, -0.1875,  0.0106, -0.0128, -0.0456, -0.0224, -0.0378
1491431982.3390970230,1491431982.3415238857, -0.1875,  0.0106, -0.0128, -0.0456, -0.0224, -0.0378
1491431982.3419001102,1491431982.3443400860, -0.1875,  0.0106, -0.0128, -0.0456, -0.0224, -0.0378
1491431982.3447170258,1491431982.3471460342, -0.1875,  0.0106, -0.0128, -0.0392, -0.0237, -0.0414
1491431982.3475210667,1491431982.3499519825, -0.1875,  0.0106, -0.0128, -0.0392, -0.0237, -0.0414
1491431982.3503279686,1491431982.3527710438, -0.1875,  0.0106, -0.0128, -0.0392, -0.0237, -0.0414
1491431982.3531498909,1491431982.3555860519, -0.1875,  0.0106, -0.0128, -0.0392, -0.0237, -0.0414
1491431982.3559610844,1491431982.3583788872, -0.1831,  0.0113, -0.0119, -0.0380, -0.0282, -0.0500
1491431982.3587539196,1491431982.3611838818, -0.1831,  0.0113, -0.0119, -0.0380, -0.0282, -0.0500
1491431982.3615601063,1491431982.3639879227, -0.1831,  0.0113, -0.0119, -0.0380, -0.0282, -0.0500
1491431982.3644120693,1491431982.3668379784, -0.1831,  0.0113, -0.0119, -0.0380, -0.0360, -0.0608
1491431982.3672139645,1491431982.3696429729, -0.1831,  0.0113, -0.0119, -0.0403, -0.0357, -0.0608
1491431982.3700170517,1491431982.3724420071, -0.1831,  0.0113, -0.0119, -0.0403, -0.0357, -0.0608
1491431982.3728179932,1491431982.3751881123, -0.1831,  0.0113, -0.0119, -0.0403, -0.0357, -0.0608
1491431982.3755559921,1491431982.3778638840, -0.1906, -0.0077,  0.0184, -0.0505, -0.0373, -0.0698
1491431982.3782329559,1491431982.3805360794, -0.1906, -0.0077,  0.0184, -0.0505, -0.0373, -0.0698
1491431982.3809039593,1491431982.3832108974, -0.1906, -0.0077,  0.0184, -0.0505, -0.0373, -0.0698
1491431982.3835799694,1491431982.3858919144, -0.1906, -0.0077,  0.0184, -0.0505, -0.0373, -0.0698
1491431982.3862609863,1491431982.3885600567, -0.1906, -0.0077,  0.0184, -0.0521, -0.0361, -0.0717
1491431982.3890480995,1491431982.3913559914, -0.1906, -0.0077,  0.0184, -0.0521, -0.0361, -0.0717
1491431982.3917241096,1491431982.3940219879, -0.1906, -0.0077,  0.0184, -0.0521, -0.0361, -0.0717
1491431982.3945751190,1491431982.3968811035, -0.1906, -0.0233,  0.0338, -0.0521, -0.0361, -0.0717
1491431982.3972499371,1491431982.3995549679, -0.1945, -0.0213,  0.0338, -0.0456, -0.0304, -0.0680
1491431982.3999230862,1491431982.4022219181, -0.1945, -0.0213,  0.0338, -0.0456, -0.0304, -0.0680
1491431982.4025919437,1491431982.4050579071, -0.1945, -0.0213,  0.0338, -0.0456, -0.0304, -0.0680
1491431982.4054338932,1491431982.4078629017, -0.1945, -0.0213,  0.0338, -0.0456, -0.0304, -0.0630
1491431982.4082379341,1491431982.4106640816, -0.1945, -0.0213,  0.0338, -0.0405, -0.0247, -0.0630
1491431982.4110391140,1491431982.4134631157, -0.1945, -0.0213,  0.0338, -0.0405, -0.0247, -0.0630
1491431982.4138400555,1491431982.4163169861, -0.1945, -0.0213,  0.0260, -0.0405, -0.0247, -0.0630
1491431982.4166929722,1491431982.4191210270, -0.1943, -0.0150,  0.0260, -0.0366, -0.0204, -0.0609
1491431982.4194970131,1491431982.4219279289, -0.1943, -0.0150,  0.0260, -0.0366, -0.0204, -0.0609
1491431982.4223060608,1491431982.4247159958, -0.1943, -0.0150,  0.0260, -0.0366, -0.0204, -0.0609
1491431982.4250860214,1491431982.4273929596, -0.1943, -0.0150,  0.0260, -0.0366, -0.0204, -0.0609
1491431982.4277620316,1491431982.4300639629, -0.1943, -0.0150,  0.0260, -0.0288, -0.0157, -0.0592
1491431982.4304308891,1491431982.4327330589, -0.1943, -0.0150,  0.0260, -0.0288, -0.0157, -0.0592
1491431982.4331018925,1491431982.4355690479, -0.1943, -0.0150,  0.0260, -0.0288, -0.0157, -0.0592
1491431982.4359428883,1491431982.4383308887, -0.1909, -0.0207,  0.0219, -0.0288, -0.0157, -0.0592
1491431982.4387040138,1491431982.4410951138, -0.1909, -0.0207,  0.0219, -0.0250, -0.0117, -0.0578
1491431982.4414689541,1491431982.4438641071, -0.1909, -0.0207,  0.0219, -0.0250, -0.0117, -0.0578
1491431982.4442429543,1491431982.4466729164, -0.1909, -0.0207,  0.0219, -0.0250, -0.0117, -0.0578
1491431982.4470500946,1491431982.4494800568, -0.1909, -0.0207,  0.0219, -0.0172, -0.0101, -0.0547
1491431982.4498538971,1491431982.4522800446, -0.1909, -0.0207,  0.0219, -0.0231, -0.0101, -0.0547
1491431982.4526560307,1491431982.4550869465, -0.1909, -0.0207,  0.0219, -0.0231, -0.0101, -0.0547
1491431982.4554560184,1491431982.4577620029, -0.1923, -0.0223,  0.0241, -0.0231, -0.0101, -0.0547
1491431982.4581310749,1491431982.4604299068, -0.1923, -0.0223,  0.0241, -0.0168, -0.0061, -0.0486
1491431982.4607980251,1491431982.4630959034, -0.1923, -0.0223,  0.0241, -0.0168, -0.0061, -0.0486
1491431982.4634640217,1491431982.4658200741, -0.1923, -0.0223,  0.0241, -0.0168, -0.0061, -0.0486
1491431982.4661900997,1491431982.4684829712, -0.1923, -0.0223,  0.0241, -0.0168, -0.0061, -0.0486
1491431982.4688520432,1491431982.4711539745, -0.1923, -0.0223,  0.0241, -0.0131, -0.0019, -0.0453
1491431982.4715230465,1491431982.4738209248, -0.1923, -0.0223,  0.0241, -0.0131, -0.0019, -0.0453
1491431982.4741981030,1491431982.4766240120, -0.1923, -0.0251,  0.0178, -0.0131, -0.0019, -0.0453
1491431982.4769999981,1491431982.4794280529, -0.1879, -0.0251,  0.0178, -0.0131, -0.0019, -0.0453
1491431982.4798040390,1491431982.4822299480, -0.1879, -0.0251,  0.0178, -0.0098, -0.0013, -0.0401
1491431982.4826099873,1491431982.4850358963, -0.1879, -0.0251,  0.0178, -0.0098, -0.0013, -0.0401
1491431982.4854130745,1491431982.4878458977, -0.1879, -0.0251,  0.0178, -0.0098, -0.0013, -0.0401
1491431982.4882240295,1491431982.4906489849, -0.1879, -0.0251,  0.0178, -0.0020,  0.0010, -0.0364
1491431982.4910259247,1491431982.4934570789, -0.1879, -0.0251,  0.0178, -0.0071,  0.0010, -0.0364
1491431982.4938359261,1491431982.4963030815, -0.1879, -0.0272,  0.0100, -0.0071,  0.0010, -0.0364
1491431982.4966800213,1491431982.4991059303, -0.1845, -0.0272,  0.0100, -0.0071,  0.0010, -0.0364
1491431982.4994819164,1491431982.5019109249, -0.1845, -0.0272,  0.0100, -0.0045,  0.0025, -0.0335
1491431982.5022900105,1491431982.5046970844, -0.1845, -0.0272,  0.0100, -0.0045,  0.0025, -0.0335
1491431982.5051751137,1491431982.5074789524, -0.1845, -0.0272,  0.0100, -0.0045,  0.0025, -0.0335
1491431982.5078499317,1491431982.5101559162, -0.1845, -0.0272,  0.0100, -0.0045,  0.0025, -0.0335
1491431982.5105230808,1491431982.5128219128, -0.1845, -0.0272,  0.0100, -0.0026,  0.0009, -0.0279
1491431982.5131909847,1491431982.5155899525, -0.1845, -0.0272,  0.0092, -0.0026,  0.0009, -0.0279
1491431982.5159690380,1491431982.5184009075, -0.1826, -0.0337,  0.0092, -0.0026,  0.0009, -0.0279
1491431982.5187780857,1491431982.5212039948, -0.1826, -0.0337,  0.0092, -0.0026, -0.0070, -0.0208
1491431982.5215818882,1491431982.5240149498, -0.1826, -0.0337,  0.0092, -0.0023, -0.0001, -0.0208
1491431982.5244460106,1491431982.5268750191, -0.1826, -0.0337,  0.0092, -0.0023, -0.0001, -0.0208
1491431982.5272519588,1491431982.5296769142, -0.1826, -0.0337,  0.0092, -0.0023, -0.0001, -0.0208
1491431982.5300540924,1491431982.5324859619, -0.1826, -0.0337,  0.0092, -0.0032, -0.0031, -0.0151
1491431982.5328619480,1491431982.5353240967, -0.1826, -0.0337,  0.0013, -0.0032, -0.0031, -0.0151
1491431982.5357010365,1491431982.5381309986, -0.1885, -0.0119,  0.0066, -0.0032, -0.0031, -0.0151
1491431982.5385069847,1491431982.5409319401, -0.1885, -0.0119,  0.0066, -0.0032, -0.0031, -0.0151
1491431982.5413100719,1491431982.5437340736, -0.1885, -0.0119,  0.0066,  0.0001, -0.0013, -0.0146
1491431982.5441219807,1491431982.5465550423, -0.1885, -0.0119,  0.0066,  0.0001, -0.0013, -0.0146
1491431982.5469329357,1491431982.5493609905, -0.1885, -0.0119,  0.0066,  0.0001, -0.0013, -0.0146
1491431982.5497388840,1491431982.5521690845, -0.1885, -0.0119,  0.0066,  0.0001,  0.0065, -0.0136
1491431982.5525460243,1491431982.5549581051, -0.1885, -0.0119,  0.0222,  0.0021,  0.0009, -0.0136
1491431982.5553290844,1491431982.5576319695, -0.1875, -0.0289,  0.0219,  0.0021,  0.0009, -0.0136
1491431982.5580010414,1491431982.5603120327, -0.1875, -0.0289,  0.0219,  0.0021,  0.0009, -0.0136
1491431982.5606820583,1491431982.5629849434, -0.1875, -0.0289,  0.0219,  0.0041,  0.0028, -0.0082
1491431982.5633549690,1491431982.5656750202, -0.1875, -0.0289,  0.0219,  0.0041,  0.0028, -0.0082
1491431982.5660440922,1491431982.5683469772, -0.1875, -0.0289,  0.0219,  0.0041,  0.0028, -0.0082
1491431982.5687189102,1491431982.5710179806, -0.1875, -0.0289,  0.0219,  0.0041,  0.0028, -0.0082
1491431982.5713889599,1491431982.5736870766, -0.1875, -0.0289,  0.0219,  0.0049,  0.0098,  0.0008
1491431982.5740571022,1491431982.5765330791, -0.1871, -0.0340,  0.0193,  0.0049,  0.0098,  0.0008
1491431982.5769100189,1491431982.5793359280, -0.1871, -0.0340,  0.0193,  0.0049,  0.0098,  0.0008
1491431982.5797119141,1491431982.5821399689, -0.1871, -0.0340,  0.0193,  0.0049,  0.0098,  0.0008
1491431982.5825169086,1491431982.5849499702, -0.1871, -0.0340,  0.0193,  0.0023,  0.0143,  0.0118
1491431982.5853259563,1491431982.5877490044, -0.1871, -0.0340,  0.0193,  0.0023,  0.0143,  0.0118
1491431982.5881240368,1491431982.5905590057, -0.1871, -0.0340,  0.0193,  0.0023,  0.0143,  0.0118
1491431982.5909368992,1491431982.5933609009, -0.1871, -0.0340,  0.0193,  0.0023,  0.0134,  0.0227
1491431982.5937368870,1491431982.5961771011, -0.1947, -0.0245,  0.0291, -0.0022,  0.0134,  0.0227
1491431982.5965518951,1491431982.5989820957, -0.1947, -0.0245,  0.0291, -0.0022,  0.0134,  0.0227
1491431982.5993580818,1491431982.6017820835, -0.1947, -0.0245,  0.0291, -0.0022,  0.0134,  0.0227
1491431982.6021599770,1491431982.6045839787, -0.1947, -0.0245,  0.0291, -0.0019,  0.0194,  0.0301
1491431982.6049540043,1491431982.6072559357, -0.1947, -0.0245,  0.0291, -0.0019,  0.0194,  0.0301
1491431982.6076240540,1491431982.6099269390, -0.1947, -0.0245,  0.0291, -0.0019,  0.0194,  0.0301
1491431982.6102960110,1491431982.6126039028, -0.1947, -0.0245,  0.0291, -0.0019,  0.0194,  0.0301
1491431982.6129729748,1491431982.6153850555, -0.1947, -0.0258,  0.0237, -0.0027,  0.0297,  0.0383
1491431982.6157629490,1491431982.6181910038, -0.1935, -0.0258,  0.0237, -0.0027,  0.0297,  0.0383
1491431982.6185660362,1491431982.6209940910, -0.1935, -0.0258,  0.0237, -0.0027,  0.0297,  0.0383
1491431982.6214780807,1491431982.6239049435, -0.1935, -0.0258,  0.0237, -0.0027,  0.0297,  0.0482
1491431982.6242930889,1491431982.6267220974, -0.1935, -0.0258,  0.0237, -0.0016,  0.0331,  0.0482
1491431982.6270980835,1491431982.6295258999, -0.1935, -0.0258,  0.0237, -0.0016,  0.0331,  0.0482
1491431982.6299018860,1491431982.6323289871, -0.1935, -0.0258,  0.0237, -0.0016,  0.0331,  0.0482
1491431982.6327071190,1491431982.6351499557, -0.1935, -0.0555,  0.0421, -0.0042,  0.0447,  0.0628
1491431982.6355249882,1491431982.6379530430, -0.2009, -0.0555,  0.0421, -0.0042,  0.0447,  0.0628
1491431982.6383299828,1491431982.6407589912, -0.2009, -0.0555,  0.0421, -0.0042,  0.0447,  0.0628
1491431982.6411340237,1491431982.6435680389, -0.2009, -0.0555,  0.0421, -0.0042,  0.0447,  0.0628
1491431982.6439459324,1491431982.6463840008, -0.2009, -0.0555,  0.0421, -0.0086,  0.0485,  0.0840
1491431982.6467599869,1491431982.6491889954, -0.2009, -0.0555,  0.0421, -0.0086,  0.0485,  0.0840
1491431982.6495659351,1491431982.6519920826, -0.2009, -0.0555,  0.0421, -0.0086,  0.0485,  0.0840
1491431982.6523699760,1491431982.6547820568, -0.2009, -0.0428,  0.0544, -0.0086,  0.0485,  0.1009
1491431982.6551508904,1491431982.6574609280, -0.2113, -0.0428,  0.0544, -0.0027,  0.0693,  0.1009
1491431982.6578299999,1491431982.6601328850, -0.2113, -0.0428,  0.0544, -0.0027,  0.0693,  0.1009
1491431982.6605019569,1491431982.6628000736, -0.2113, -0.0428,  0.0544, -0.0027,  0.0693,  0.1009
1491431982.6631700993,1491431982.6655778885, -0.2113, -0.0428,  0.0544,  0.0051,  0.0842,  0.1194
1491431982.6659560204,1491431982.6683859825, -0.2113, -0.0428,  0.0544,  0.0013,  0.0842,  0.1194
1491431982.6687641144,1491431982.6711909771, -0.2113, -0.0428,  0.0544,  0.0013,  0.0842,  0.1194
1491431982.6715669632,1491431982.6739909649, -0.2113, -0.0428,  0.0779,  0.0013,  0.0842,  0.1194
1491431982.6744220257,1491431982.6768460274, -0.2305, -0.0258,  0.0725,  0.0074,  0.1017,  0.1363
1491431982.6772251129,1491431982.6796519756, -0.2305, -0.0258,  0.0725,  0.0074,  0.1017,  0.1363
1491431982.6800289154,1491431982.6824550629, -0.2305, -0.0258,  0.0725,  0.0074,  0.1017,  0.1363
1491431982.6828329563,1491431982.6853039265, -0.2305, -0.0258,  0.0725,  0.0074,  0.1017,  0.1519
1491431982.6856811047,1491431982.6881101131, -0.2305, -0.0258,  0.0725,  0.0315,  0.1326,  0.1494
1491431982.6884849072,1491431982.6909101009, -0.2305, -0.0258,  0.0725,  0.0315,  0.1326,  0.1494
1491431982.6912860870,1491431982.6937150955, -0.2305, -0.0258,  0.0022,  0.0315,  0.1326,  0.1494
1491431982.6940999031,1491431982.6965279579, -0.2040,  0.0123,  0.0008,  0.0627,  0.1412,  0.1581
1491431982.6969048977,1491431982.6993329525, -0.2040,  0.0123,  0.0008,  0.0646,  0.1412,  0.1581
1491431982.6997079849,1491431982.7021389008, -0.2040,  0.0123,  0.0008,  0.0646,  0.1412,  0.1581
1491431982.7025139332,1491431982.7049129009, -0.2040,  0.0123,  0.0008,  0.0646,  0.1412,  0.1581
1491431982.7052829266,1491431982.7075819969, -0.2040,  0.0123,  0.0008,  0.1289,  0.1243,  0.1539
1491431982.7079529762,1491431982.7102599144, -0.2040,  0.0123,  0.0008,  0.1289,  0.1243,  0.1539
1491431982.7106280327,1491431982.7129321098, -0.2040,  0.0123,  0.0008,  0.1289,  0.1243,  0.1539
1491431982.7133009434,1491431982.7156519890, -0.2074, -0.0013,  0.0084,  0.1289,  0.1243,  0.1539
1491431982.7160220146,1491431982.7183189392, -0.2074, -0.0013,  0.0084,  0.1412,  0.1097,  0.1351
1491431982.7186889648,1491431982.7209870815, -0.2074, -0.0013,  0.0084,  0.1412,  0.1097,  0.1351
1491431982.7213571072,1491431982.7236590385, -0.2074, -0.0013,  0.0084,  0.1412,  0.1097,  0.1351
1491431982.7240281105,1491431982.7264730930, -0.2074, -0.0013,  0.0084,  0.1412,  0.1097,  0.1273
1491431982.7268519402,1491431982.7292740345, -0.2074, -0.0013,  0.0084,  0.1652,  0.0921,  0.1325
1491431982.7296509743,1491431982.7320780754, -0.2074, -0.0013,  0.0084,  0.1652,  0.0921,  0.1325
1491431982.7324569225,1491431982.7349240780, -0.2963, -0.0718, -0.0383,  0.1652,  0.0921,  0.1325
1491431982.7354009151,1491431982.7378320694, -0.2963, -0.0718, -0.0383,  0.1671,  0.0646,  0.1582
1491431982.7382071018,1491431982.7406339645, -0.2963, -0.0718, -0.0383,  0.1671,  0.0646,  0.1582
1491431982.7410109043,1491431982.7434389591, -0.2963, -0.0718, -0.0383,  0.1671,  0.0646,  0.1582
1491431982.7438149452,1491431982.7462489605, -0.2963, -0.0718, -0.0383,  0.1671,  0.0646,  0.1582
1491431982.7466239929,1491431982.7490470409, -0.2963, -0.0718, -0.0383,  0.1910,  0.0233,  0.1868
1491431982.7494220734,1491431982.7518498898, -0.2963, -0.0718, -0.0383,  0.1910,  0.0233,  0.1868
1491431982.7522261143,1491431982.7547030449, -0.4998, -0.2887, -0.1273,  0.1910,  0.0233,  0.1868
1491431982.7550780773,1491431982.7575049400, -0.4998, -0.2887, -0.1273,  0.1910,  0.0233,  0.3089
1491431982.7578809261,1491431982.7603089809, -0.4998, -0.2887, -0.1273,  0.1338,  0.0435,  0.3089
1491431982.7606849670,1491431982.7631099224, -0.4998, -0.2887, -0.1273,  0.1338,  0.0435,  0.3089
1491431982.7634849548,1491431982.7658329010, -0.4998, -0.2887, -0.1273,  0.1338,  0.0435,  0.3089
1491431982.7662000656,1491431982.7685050964, -0.4998, -0.2887, -0.1273,  0.0791,  0.0895,  0.4516
1491431982.7688729763,1491431982.7711730003, -0.4998, -0.2887, -0.1273,  0.0801,  0.0895,  0.4516
1491431982.7715411186,1491431982.7738449574, -0.3905, -0.2289,  0.0183,  0.0801,  0.0895,  0.4516
1491431982.7742199898,1491431982.7766489983, -0.3857, -0.2289,  0.0183,  0.0801,  0.0895,  0.4516
1491431982.7770249844,1491431982.7794530392, -0.3857, -0.2289,  0.0183,  0.0695,  0.0341,  0.5502
1491431982.7798290253,1491431982.7822589874, -0.3857, -0.2289,  0.0183,  0.0695,  0.0341,  0.5502
1491431982.7826330662,1491431982.7850999832, -0.3857, -0.2289,  0.0183,  0.0695,  0.0341,  0.5502
1491431982.7854790688,1491431982.7878980637, -0.3857, -0.2289,  0.0183,  0.0695,  0.0341,  0.5502
1491431982.7882730961,1491431982.7907040119, -0.3857, -0.2289,  0.0183,  0.0381, -0.0093,  0.6430
1491431982.7910809517,1491431982.7935070992, -0.3857, -0.2145,  0.0926,  0.0381, -0.0093,  0.6430
1491431982.7938868999,1491431982.7963190079, -0.3689, -0.2145,  0.0926,  0.0381, -0.0093,  0.6430
1491431982.7966959476,1491431982.7991271019, -0.3689, -0.2145,  0.0926,  0.0381, -0.0093,  0.6831
1491431982.7995030880,1491431982.8019270897, -0.3689, -0.2145,  0.0926, -0.0526, -0.0097,  0.6831
1491431982.8023040295,1491431982.8047220707, -0.3689, -0.2145,  0.0926, -0.0526, -0.0097,  0.6831
1491431982.8050930500,1491431982.8073940277, -0.3689, -0.2145,  0.0926, -0.0526, -0.0097,  0.6831
1491431982.8077630997,1491431982.8100640774, -0.3689, -0.2145,  0.0926, -0.1934,  0.0302,  0.7281
1491431982.8104329109,1491431982.8127369881, -0.3689, -0.2145,  0.2210, -0.1934,  0.0302,  0.7281
1491431982.8131051064,1491431982.8154540062, -0.4860, -0.0534,  0.2210, -0.1934,  0.0302,  0.7281
1491431982.8158240318,1491431982.8181190491, -0.4860, -0.0534,  0.2210, -0.1934,  0.0302,  0.7281
1491431982.8184890747,1491431982.8207919598, -0.4860, -0.0534,  0.2210, -0.2923,  0.1027,  0.7444
1491431982.8211619854,1491431982.8234610558, -0.4860, -0.0534,  0.2210, -0.2923,  0.1027,  0.7444
1491431982.8238310814,1491431982.8262660503, -0.4860, -0.0534,  0.2210, -0.2923,  0.1027,  0.7444
1491431982.8266410828,1491431982.8290650845, -0.4860, -0.0534,  0.2210, -0.2923,  0.1027,  0.7444
1491431982.8294429779,1491431982.8318729401, -0.4860, -0.0534,  0.2210, -0.1856,  0.3358,  0.6465
1491431982.8322489262,1491431982.8347289562, -0.2049, -0.1664,  0.0002, -0.1856,  0.3358,  0.6465
1491431982.8351039886,1491431982.8375310898, -0.2049, -0.1664,  0.0002, -0.1856,  0.3358,  0.6465
1491431982.8379058838,1491431982.8403298855, -0.2049, -0.1664,  0.0002, -0.1856,  0.2944,  0.5702
1491431982.8407061100,1491431982.8431360722, -0.2049, -0.1664,  0.0002, -0.1526,  0.2944,  0.5702
1491431982.8435120583,1491431982.8459479809, -0.2049, -0.1664,  0.0002, -0.1526,  0.2944,  0.5702
1491431982.8463239670,1491431982.8487560749, -0.2049, -0.1664,  0.0002, -0.1526,  0.2944,  0.5702
1491431982.8491320610,1491431982.8515589237, -0.2049, -0.1664,  0.0002, -0.1840,  0.2164,  0.4506
1491431982.8520491123,1491431982.8545150757,  0.0172, -0.1103, -0.0363, -0.1840,  0.2164,  0.4506
1491431982.8548951149,1491431982.8573260307,  0.0172, -0.1103, -0.0363, -0.1840,  0.2164,  0.4506
1491431982.8577020168,1491431982.8601191044,  0.0172, -0.1103, -0.0363, -0.1840,  0.2164,  0.4506
1491431982.8604979515,1491431982.8629200459,  0.0172, -0.1103, -0.0363, -0.3028,  0.2424,  0.3374
1491431982.8632950783,1491431982.8656558990,  0.0172, -0.1103, -0.0363, -0.3028,  0.2424,  0.3374
1491431982.8660259247,1491431982.8683269024,  0.0172, -0.1103, -0.0363, -0.3028,  0.2424,  0.3374
1491431982.8686950207,1491431982.8710019588,  0.0172, -0.1103, -0.0363, -0.3028,  0.2033,  0.1022
1491431982.8713729382,1491431982.8736720085,  0.0057, -0.1077,  0.1963, -0.3020,  0.2067,  0.1022
1491431982.8740429878,1491431982.8765161037,  0.0057, -0.1077,  0.1963, -0.3020,  0.2067,  0.1022
1491431982.8768949509,1491431982.8793261051,  0.0057, -0.1077,  0.1963, -0.3020,  0.2067,  0.1022
1491431982.8797020912,1491431982.8821260929,  0.0057, -0.1077,  0.1963, -0.2365,  0.0928, -0.0460
1491431982.8825049400,1491431982.8849370480,  0.0057, -0.1077,  0.1963, -0.2365,  0.0928, -0.0460
1491431982.8853158951,1491431982.8877410889,  0.0057, -0.1077,  0.1963, -0.2365,  0.0928, -0.0460
1491431982.8881189823,1491431982.8905439377,  0.0057, -0.1077,  0.1963, -0.2365,  0.0928, -0.0460
1491431982.8909220695,1491431982.8933460712, -0.1293, -0.1477,  0.0866, -0.1708,  0.1151, -0.0993
1491431982.8937230110,1491431982.8961570263, -0.1293, -0.1477,  0.0866, -0.1708,  0.1151, -0.0993
1491431982.8965361118,1491431982.8989639282, -0.1293, -0.1477,  0.0866, -0.1708,  0.1151, -0.0993
1491431982.8993411064,1491431982.9017689228, -0.1293, -0.1477,  0.0866, -0.1708,  0.1151, -0.1279
1491431982.9021470547,1491431982.9045839310, -0.1293, -0.1477,  0.0866, -0.1390,  0.1256, -0.1279
1491431982.9049589634,1491431982.9073801041, -0.1293, -0.1477,  0.0866, -0.1390,  0.1256, -0.1279
1491431982.9077560902,1491431982.9101879597, -0.1293, -0.1477,  0.0866, -0.1390,  0.1256, -0.1279
1491431982.9105648994,1491431982.9129850864, -0.0338, -0.1211,  0.1034, -0.0916,  0.1126, -0.1759
1491431982.9133648872,1491431982.9157249928, -0.0338, -0.1211,  0.1034, -0.0916,  0.1126, -0.1759
1491431982.9160950184,1491431982.9183990955, -0.0338, -0.1211,  0.1034, -0.0916,  0.1126, -0.1759
1491431982.9187669754,1491431982.9210720062, -0.0338, -0.1211,  0.1034, -0.0916,  0.1126, -0.1759
1491431982.9214420319,1491431982.9237439632, -0.0338, -0.1211,  0.1034, -0.0557,  0.0927, -0.2443
1491431982.9241299629,1491431982.9265561104, -0.0338, -0.1211,  0.1034, -0.0557,  0.0927, -0.2443
1491431982.9269340038,1491431982.9293560982, -0.0338, -0.1211,  0.1034, -0.0557,  0.0927, -0.2443
1491431982.9297320843,1491431982.9321610928, -0.0338, -0.1367,  0.0665, -0.0557,  0.0927, -0.2443
1491431982.9325380325,1491431982.9349780083, -0.0546, -0.1390,  0.0665, -0.0321,  0.0692, -0.3176
1491431982.9353549480,1491431982.9377861023, -0.0546, -0.1390,  0.0665, -0.0321,  0.0692, -0.3176
1491431982.9381608963,1491431982.9405939579, -0.0546, -0.1390,  0.0665, -0.0321,  0.0692, -0.3176
1491431982.9409689903,1491431982.9433960915, -0.0546, -0.1390,  0.0665, -0.0087,  0.0458, -0.3785
1491431982.9437708855,1491431982.9462130070, -0.0546, -0.1390,  0.0665, -0.0112,  0.0458, -0.3785
1491431982.9465889931,1491431982.9490160942, -0.0546, -0.1390,  0.0665, -0.0112,  0.0458, -0.3785
1491431982.9493920803,1491431982.9518179893, -0.0546, -0.1390,  0.0621, -0.0112,  0.0458, -0.3785
1491431982.9521930218,1491431982.9546229839, -0.0974, -0.1537,  0.0621, -0.0016,  0.0148, -0.4256
1491431982.9549949169,1491431982.9572980404, -0.0974, -0.1537,  0.0621, -0.0016,  0.0148, -0.4256
1491431982.9576699734,1491431982.9599790573, -0.0974, -0.1537,  0.0621, -0.0016,  0.0148, -0.4256
1491431982.9603478909,1491431982.9626510143, -0.0974, -0.1537,  0.0621, -0.0016,  0.0148, -0.4256
1491431982.9630210400,1491431982.9653329849, -0.0974, -0.1537,  0.0621,  0.0013, -0.0133, -0.4645
1491431982.9657020569,1491431982.9680070877, -0.0974, -0.1537,  0.0621,  0.0013, -0.0133, -0.4645
1491431982.9684879780,1491431982.9707899094, -0.0974, -0.1537,  0.0621,  0.0013, -0.0133, -0.4645
1491431982.9711599350,1491431982.9734609127, -0.1297, -0.1488,  0.0488,  0.0013, -0.0133, -0.5035
1491431982.9738299847,1491431982.9762558937, -0.1297, -0.1488,  0.0488, -0.0012, -0.0425, -0.5013
1491431982.9766321182,1491431982.9790570736, -0.1297, -0.1488,  0.0488, -0.0012, -0.0425, -0.5013
1491431982.9794340134,1491431982.9818639755, -0.1297, -0.1488,  0.0488, -0.0012, -0.0425, -0.5013
1491431982.9822409153,1491431982.9847159386, -0.1297, -0.1488,  0.0488, -0.0090, -0.0682, -0.5384
1491431982.9850931168,1491431982.9875218868, -0.1297, -0.1488,  0.0488, -0.0102, -0.0682, -0.5384
1491431982.9878969193,1491431982.9903221130, -0.1297, -0.1488,  0.0488, -0.0102, -0.0682, -0.5384
1491431982.9906980991,1491431982.9931199551, -0.1708, -0.1483,  0.0528, -0.0102, -0.0682, -0.5384
1491431982.9934959412,1491431982.9959309101, -0.1708, -0.1483,  0.0528, -0.0219, -0.0875, -0.5692
1491431982.9963068962,1491431982.9987370968, -0.1708, -0.1483,  0.0528, -0.0219, -0.0875, -0.5692
1491431982.9991140366,1491431983.0015399456, -0.1708, -0.1483,  0.0528, -0.0219, -0.0875, -0.5692
1491431983.0019180775,1491431983.0043621063, -0.1708, -0.1483,  0.0528, -0.0219, -0.0875, -0.6005
1491431983.0047380924,1491431983.0071640015, -0.1708, -0.1483,  0.0528, -0.0336, -0.1010, -0.5956
1491431983.0075409412,1491431983.0099689960, -0.1708, -0.1483,  0.0528, -0.0336, -0.1010, -0.5956
1491431983.0103459358,1491431983.0127770901, -0.2124, -0.1376,  0.0457, -0.0336, -0.1010, -0.5956
1491431983.0131530762,1491431983.0155179501, -0.2124, -0.1376,  0.0457, -0.0398, -0.1087, -0.6190
1491431983.0158870220,1491431983.0181849003, -0.2124, -0.1376,  0.0457, -0.0398, -0.1087, -0.6190
1491431983.0185530186,1491431983.0208621025, -0.2124, -0.1376,  0.0457, -0.0398, -0.1087, -0.6190
1491431983.0212290287,1491431983.0235290527, -0.2124, -0.1376,  0.0457, -0.0398, -0.1087, -0.6190
1491431983.0238978863,1491431983.0263578892, -0.2124, -0.1376,  0.0457, -0.0410, -0.1169, -0.6411
1491431983.0267319679,1491431983.0291590691, -0.2124, -0.1376,  0.0457, -0.0410, -0.1169, -0.6411
1491431983.0295360088,1491431983.0319609642, -0.2547, -0.1168,  0.0323, -0.0410, -0.1169, -0.6411
1491431983.0323369503,1491431983.0347800255, -0.2547, -0.1168,  0.0323, -0.0410, -0.1169, -0.6411
1491431983.0351579189,1491431983.0375869274, -0.2547, -0.1168,  0.0323, -0.0440, -0.1219, -0.6607
1491431983.0379629135,1491431983.0403890610, -0.2547, -0.1168,  0.0323, -0.0440, -0.1219, -0.6607
1491431983.0407650471,1491431983.0431981087, -0.2547, -0.1168,  0.0323, -0.0440, -0.1219, -0.6607
1491431983.0435769558,1491431983.0460131168, -0.2547, -0.1168,  0.0323, -0.0440, -0.1219, -0.6763
1491431983.0463900566,1491431983.0488190651, -0.2547, -0.1168,  0.0323, -0.0435, -0.1223, -0.6763
1491431983.0491960049,1491431983.0516259670, -0.3094, -0.1037,  0.0237, -0.0435, -0.1223, -0.6763
1491431983.0520029068,1491431983.0550959110, -0.3080, -0.1037,  0.0237, -0.0435, -0.1223, -0.6763
1491431983.0554690361,1491431983.0577731133, -0.3080, -0.1037,  0.0237, -0.0433, -0.1225, -0.6827
1491431983.0581429005,1491431983.0604360104, -0.3080, -0.1037,  0.0237, -0.0433, -0.1225, -0.6827
1491431983.0608060360,1491431983.0631000996, -0.3080, -0.1037,  0.0237, -0.0433, -0.1225, -0.6827
1491431983.0634710789,1491431983.0658910275, -0.3080, -0.1037,  0.0237, -0.0433, -0.1225, -0.6827
1491431983.0662610531,1491431983.0685560703, -0.3080, -0.1037,  0.0237, -0.0452, -0.1207, -0.6805
1491431983.0689249039,1491431983.0712270737, -0.3627, -0.0696,  0.0055, -0.0452, -0.1207, -0.6805
1491431983.0715970993,1491431983.0738921165, -0.3618, -0.0696,  0.0055, -0.0452, -0.1207, -0.6805
1491431983.0742599964,1491431983.0765581131, -0.3618, -0.0696,  0.0055, -0.0452, -0.1207, -0.6739
1491431983.0769300461,1491431983.0792229176, -0.3618, -0.0696,  0.0055, -0.0450, -0.1166, -0.6739
1491431983.0795950890,1491431983.0818939209, -0.3618, -0.0696,  0.0055, -0.0450, -0.1166, -0.6739
1491431983.0822639465,1491431983.0845680237, -0.3618, -0.0696,  0.0055, -0.0450, -0.1166, -0.6739
1491431983.0850450993,1491431983.0873479843, -0.3618, -0.0696,  0.0055, -0.0450, -0.1135, -0.6613
1491431983.0877170563,1491431983.0900099277, -0.3618, -0.0696,  0.0055, -0.0424, -0.1135, -0.6613
1491431983.0903809071,1491431983.0926790237, -0.4008, -0.0019, -0.0174, -0.0424, -0.1135, -0.6613
1491431983.0930509567,1491431983.0954320431, -0.4008, -0.0019, -0.0174, -0.0424, -0.1135, -0.6613
1491431983.0958089828,1491431983.0982429981, -0.4008, -0.0019, -0.0174, -0.0464, -0.1112, -0.6406
1491431983.0986208916,1491431983.1010499001, -0.4008, -0.0019, -0.0174, -0.0464, -0.1112, -0.6406
1491431983.1014270782,1491431983.1038510799, -0.4008, -0.0019, -0.0174, -0.0464, -0.1112, -0.6406
1491431983.1042389870,1491431983.1065399647, -0.4008, -0.0019, -0.0174, -0.0464, -0.1112, -0.6406
1491431983.1069099903,1491431983.1092209816, -0.4008, -0.0019, -0.0174, -0.0545, -0.1023, -0.6129
1491431983.1095910072,1491431983.1118960381, -0.4578,  0.1313, -0.0218, -0.0545, -0.1023, -0.6129
1491431983.1122651100,1491431983.1146171093, -0.4578,  0.1313, -0.0218, -0.0545, -0.1023, -0.6129
1491431983.1149940491,1491431983.1174221039, -0.4578,  0.1313, -0.0218, -0.0545, -0.1023, -0.5660
1491431983.1177990437,1491431983.1202270985, -0.4578,  0.1313, -0.0218, -0.0695, -0.0851, -0.5693
1491431983.1206030846,1491431983.1230330467, -0.4578,  0.1313, -0.0218, -0.0695, -0.0851, -0.5693
1491431983.1234090328,1491431983.1258389950, -0.4578,  0.1313, -0.0218, -0.0695, -0.0851, -0.5693
1491431983.1262168884,1491431983.1286439896, -0.4578,  0.1313, -0.0218, -0.0930, -0.0609, -0.5115
1491431983.1290199757,1491431983.1314480305, -0.4612,  0.2968, -0.0085, -0.0872, -0.0609, -0.5115
1491431983.1318249702,1491431983.1343030930, -0.4612,  0.2968, -0.0085, -0.0872, -0.0609, -0.5115
1491431983.1346819401,1491431983.1371169090, -0.4612,  0.2968, -0.0085, -0.0872, -0.0609, -0.5115
1491431983.1374950409,1491431983.1399219036, -0.4612,  0.2968, -0.0085, -0.0842, -0.0369, -0.4349
1491431983.1402990818,1491431983.1427240372, -0.4612,  0.2968, -0.0085, -0.0842, -0.0369, -0.4349
1491431983.1431019306,1491431983.1455481052, -0.4612,  0.2968, -0.0085, -0.0842, -0.0369, -0.4349
1491431983.1459250450,1491431983.1483480930, -0.4612,  0.2968, -0.0085, -0.0842, -0.0369, -0.3333
1491431983.1487259865,1491431983.1511540413, -0.4100,  0.4727,  0.0067, -0.0817, -0.0203, -0.3324
1491431983.1515309811,1491431983.1539640427, -0.4100,  0.4727,  0.0067, -0.0817, -0.0203, -0.3324
1491431983.1543331146,1491431983.1566400528, -0.4100,  0.4727,  0.0067, -0.0817, -0.0203, -0.3324
1491431983.1570100784,1491431983.1593120098, -0.4100,  0.4727,  0.0067, -0.0817, -0.0030, -0.2068
1491431983.1596839428,1491431983.1619889736, -0.4100,  0.4727,  0.0067, -0.0764, -0.0030, -0.2068
1491431983.1623570919,1491431983.1647419930, -0.4100,  0.4727,  0.0067, -0.0764, -0.0030, -0.2068
1491431983.1651189327,1491431983.1675388813, -0.4100,  0.4727,  0.0067, -0.0764, -0.0030, -0.2068
1491431983.1679139137,1491431983.1703279018, -0.3319,  0.5709,  0.0141, -0.0744,  0.0075, -0.0754
1491431983.1707050800,1491431983.1731219292, -0.3351,  0.5709,  0.0141, -0.0744,  0.0075, -0.0754
1491431983.1734969616,1491431983.1759080887, -0.3351,  0.5709,  0.0141, -0.0744,  0.0075, -0.0754
1491431983.1762819290,1491431983.1787950993, -0.3351,  0.5709,  0.0141, -0.0744,  0.0075, -0.0754
1491431983.1791839600,1491431983.1814970970, -0.3351,  0.5709,  0.0141, -0.0671,  0.0107,  0.0387
1491431983.1818668842,1491431983.1843309402, -0.3351,  0.5709,  0.0141, -0.0671,  0.0107,  0.0387
1491431983.1847000122,1491431983.1869978905, -0.3351,  0.5709,  0.0141, -0.0671,  0.0107,  0.0387
1491431983.1873669624,1491431983.1896688938, -0.3351,  0.3365, -0.1029, -0.0671,  0.0107,  0.1602
1491431983.1900370121,1491431983.1923298836, -0.6442,  0.3397, -0.1029, -0.0428,  0.0033,  0.1602
1491431983.1927011013,1491431983.1951110363, -0.6442,  0.3397, -0.1029, -0.0428,  0.0033,  0.1602
1491431983.1954829693,1491431983.1977870464, -0.6442,  0.3397, -0.1029, -0.0428,  0.0033,  0.1602
1491431983.1981561184,1491431983.2004520893, -0.6442,  0.3397, -0.1029, -0.0428, -0.0024,  0.3921
1491431983.2009320259,1491431983.2032330036, -0.6442,  0.3397, -0.1029, -0.0520, -0.0024,  0.3921
1491431983.2036039829,1491431983.2059090137, -0.6442,  0.3397, -0.1029, -0.0520, -0.0024,  0.3921
1491431983.2062799931,1491431983.2085759640, -0.6442,  0.3397, -0.1029, -0.0520, -0.0024,  0.3921
1491431983.2089478970,1491431983.2112450600,  0.1189,  0.3137,  0.0894,  0.0142,  0.1026,  0.4267
1491431983.2116138935,1491431983.2139120102,  0.1189,  0.3137,  0.0894,  0.0142,  0.1026,  0.4267
1491431983.2142798901,1491431983.2165780067,  0.1189,  0.3137,  0.0894,  0.0142,  0.1026,  0.4267
1491431983.2169470787,1491431983.2192530632,  0.1189,  0.3137,  0.0894,  0.0142,  0.1026,  0.4267
1491431983.2196218967,1491431983.2219159603,  0.1189,  0.3137,  0.0894, -0.0356,  0.2047,  0.1258
1491431983.2222850323,1491431983.2246229649,  0.1189,  0.3137,  0.0894, -0.0356,  0.2047,  0.1258
1491431983.2250010967,1491431983.2274320126,  0.1189,  0.3137,  0.0894, -0.0356,  0.2047,  0.1258
1491431983.2278089523,1491431983.2302379608, -0.3729, -0.5765,  0.2476, -0.0356,  0.2047,  0.1258
1491431983.2306149006,1491431983.2330420017, -0.3729, -0.5765,  0.2476, -0.4029, -0.1492,  0.4186
1491431983.2334148884,1491431983.2358469963, -0.3729, -0.5765,  0.2476, -0.4029, -0.1492,  0.4186
1491431983.2362229824,1491431983.2386560440, -0.3729, -0.5765,  0.2476, -0.4029, -0.1492,  0.4186
1491431983.2390310764,1491431983.2414650917, -0.3729, -0.5765,  0.2476, -0.4029, -0.1258,  0.7507
1491431983.2418398857,1491431983.2443010807, -0.3729, -0.5765,  0.2476, -0.1257, -0.1295,  0.7507
1491431983.2446711063,1491431983.2469749451, -0.3729, -0.5765,  0.2476, -0.1257, -0.1295,  0.7507
1491431983.2473421097,1491431983.2496459484, -0.2870,  0.4907, -0.1880, -0.1257, -0.1295,  0.7507
1491431983.2500131130,1491431983.2523150444, -0.2867,  0.4907, -0.1880, -0.1239, -0.0559,  0.6331
1491431983.2526841164,1491431983.2550520897, -0.2867,  0.4907, -0.1880, -0.1239, -0.0559,  0.6331
1491431983.2554290295,1491431983.2578580379, -0.2867,  0.4907, -0.1880, -0.1239, -0.0559,  0.6331
1491431983.2582368851,1491431983.2606630325, -0.2867,  0.4907, -0.1880, -0.1239, -0.0559,  0.6331
1491431983.2610390186,1491431983.2634670734, -0.2867,  0.4907, -0.1880,  0.0280, -0.0230,  0.3975
1491431983.2638440132,1491431983.2663130760, -0.2867,  0.4907, -0.1880,  0.0280, -0.0230,  0.3975
1491431983.2666890621,1491431983.2691268921, -0.2867,  0.0063,  0.1364,  0.0280, -0.0230,  0.3975
1491431983.2695050240,1491431983.2719330788, -0.2261,  0.0040,  0.1364,  0.0280, -0.0230,  0.3506
1491431983.2723081112,1491431983.2747499943, -0.2261,  0.0040,  0.1364, -0.0218, -0.0550,  0.3490
1491431983.2751269341,1491431983.2775599957, -0.2261,  0.0040,  0.1364, -0.0218, -0.0550,  0.3490
1491431983.2779369354,1491431983.2803649902, -0.2261,  0.0040,  0.1364, -0.0218, -0.0550,  0.3490
1491431983.2807409763,1491431983.2831621170, -0.2261,  0.0040,  0.1364, -0.0468, -0.0449,  0.3076
1491431983.2835390568,1491431983.2859780788, -0.2261,  0.0040,  0.1364, -0.0468, -0.0449,  0.3076
1491431983.2863540649,1491431983.2887771130, -0.2261,  0.0665,  0.0217, -0.0468, -0.0449,  0.3076
1491431983.2891530991,1491431983.2915830612, -0.1985,  0.0684,  0.0217, -0.0468, -0.0449,  0.3076
1491431983.2919580936,1491431983.2943909168, -0.1985,  0.0684,  0.0217, -0.0359, -0.0410,  0.2603
1491431983.2947590351,1491431983.2970559597, -0.1985,  0.0684,  0.0217, -0.0359, -0.0410,  0.2603
1491431983.2974240780,1491431983.2997341156, -0.1985,  0.0684,  0.0217, -0.0359, -0.0410,  0.2603
1491431983.3001019955,1491431983.3024051189, -0.1985,  0.0684,  0.0217, -0.0359, -0.0410,  0.2603
1491431983.3027710915,1491431983.3053660393, -0.1985,  0.0684,  0.0217, -0.0005, -0.0327,  0.2175
1491431983.3057379723,1491431983.3080420494, -0.1985,  0.0684,  0.0139, -0.0005, -0.0327,  0.2175
1491431983.3084099293,1491431983.3107070923, -0.2454,  0.1091,  0.0122, -0.0005, -0.0327,  0.2175
1491431983.3110780716,1491431983.3133718967, -0.2454,  0.1091,  0.0122, -0.0005, -0.0327,  0.1692
1491431983.3138411045,1491431983.3162570000, -0.2454,  0.1091,  0.0122,  0.0183, -0.0345,  0.1692
1491431983.3166289330,1491431983.3189249039, -0.2454,  0.1091,  0.0122,  0.0183, -0.0345,  0.1692
1491431983.3192949295,1491431983.3215949535, -0.2454,  0.1091,  0.0122,  0.0183, -0.0345,  0.1692
1491431983.3219649792,1491431983.3243870735, -0.2454,  0.1091,  0.0122,  0.0296,  0.0041,  0.0894
1491431983.3247580528,1491431983.3270530701, -0.2454,  0.1091,  0.0122,  0.0296,  0.0041,  0.0894
1491431983.3274219036,1491431983.3297259808, -0.1822, -0.0067, -0.0010,  0.0296,  0.0041,  0.0894
1491431983.3300979137,1491431983.3323929310, -0.1822, -0.0067, -0.0010,  0.0296,  0.0041,  0.0894
1491431983.3327639103,1491431983.3351130486, -0.1822, -0.0067, -0.0010,  0.0363,  0.0008,  0.0570
1491431983.3354818821,1491431983.3377799988, -0.1822, -0.0067, -0.0010,  0.0363,  0.0008,  0.0570
1491431983.3381490707,1491431983.3404490948, -0.1822, -0.0067, -0.0010,  0.0363,  0.0008,  0.0570
1491431983.3408200741,1491431983.3431220055, -0.1822, -0.0067, -0.0010,  0.0363,  0.0008,  0.0570
1491431983.3434910774,1491431983.3458371162, -0.1822, -0.0067, -0.0010,  0.0463, -0.0096,  0.0506
1491431983.3462080956,1491431983.3485031128, -0.1822,  0.0009, -0.0053,  0.0463, -0.0096,  0.0506
1491431983.3488729000,1491431983.3511760235, -0.1922,  0.0009, -0.0053,  0.0463, -0.0096,  0.0506
1491431983.3515439034,1491431983.3538420200, -0.1922,  0.0009, -0.0053,  0.0463, -0.0096,  0.0506
1491431983.3542180061,1491431983.3566451073, -0.1922,  0.0009, -0.0053,  0.0466, -0.0120,  0.0358
1491431983.3570210934,1491431983.3594400883, -0.1922,  0.0009, -0.0053,  0.0466, -0.0120,  0.0358
1491431983.3598148823,1491431983.3622291088, -0.1922,  0.0009, -0.0053,  0.0466, -0.0120,  0.0358
1491431983.3626039028,1491431983.3650300503, -0.1922,  0.0009, -0.0053,  0.0466, -0.0120,  0.0289
1491431983.3654060364,1491431983.3678169250, -0.1922,  0.0009,  0.0302,  0.0527, -0.0151,  0.0289
1491431983.3681919575,1491431983.3706080914, -0.1972, -0.0062,  0.0302,  0.0527, -0.0151,  0.0289
1491431983.3709840775,1491431983.3734030724, -0.1972, -0.0062,  0.0302,  0.0527, -0.0151,  0.0289
1491431983.3737800121,1491431983.3762080669, -0.1972, -0.0062,  0.0302,  0.0596, -0.0107,  0.0231
1491431983.3765850067,1491431983.3790040016, -0.1972, -0.0062,  0.0302,  0.0596, -0.0107,  0.0231
1491431983.3793799877,1491431983.3817970753, -0.1972, -0.0062,  0.0302,  0.0596, -0.0107,  0.0231
1491431983.3821721077,1491431983.3845989704, -0.1972, -0.0062,  0.0302,  0.0596, -0.0107,  0.0231
1491431983.3849749565,1491431983.3873929977, -0.1972, -0.0062,  0.0145,  0.0576, -0.0137,  0.0183
1491431983.3877699375,1491431983.3901851177, -0.1960, -0.0148,  0.0139,  0.0576, -0.0137,  0.0183
1491431983.3905599117,1491431983.3929750919, -0.1960, -0.0148,  0.0139,  0.0576, -0.0137,  0.0183
1491431983.3933489323,1491431983.3957810402, -0.1960, -0.0148,  0.0139,  0.0576, -0.0215,  0.0180
1491431983.3961570263,1491431983.3985719681, -0.1960, -0.0148,  0.0139,  0.0445, -0.0178,  0.0180
1491431983.3989460468,1491431983.4013679028, -0.1960, -0.0148,  0.0139,  0.0445, -0.0178,  0.0180
1491431983.4017429352,1491431983.4041700363, -0.1960, -0.0148,  0.0139,  0.0445, -0.0178,  0.0180
1491431983.4045450687,1491431983.4069590569, -0.1960, -0.0148,  0.0139,  0.0389, -0.0103,  0.0157
1491431983.4073350430,1491431983.4097530842, -0.1949, -0.0108,  0.0364,  0.0389, -0.0103,  0.0157
1491431983.4101269245,1491431983.4125390053, -0.1949, -0.0108,  0.0364,  0.0389, -0.0103,  0.0157
1491431983.4129140377,1491431983.4153389931, -0.1949, -0.0108,  0.0364,  0.0389, -0.0103,  0.0157
1491431983.4157159328,1491431983.4181370735, -0.1949, -0.0108,  0.0364,  0.0326, -0.0017,  0.0161
1491431983.4185130596,1491431983.4209289551, -0.1949, -0.0108,  0.0364,  0.0326, -0.0017,  0.0161
1491431983.4213049412,1491431983.4237239361, -0.1949, -0.0108,  0.0364,  0.0326, -0.0017,  0.0161
1491431983.4241080284,1491431983.4265029430, -0.1949, -0.0108,  0.0364,  0.0326, -0.0017,  0.0129
1491431983.4268779755,1491431983.4292678833, -0.1885, -0.0061,  0.0086,  0.0300,  0.0060,  0.0129
1491431983.4297749996,1491431983.4322130680, -0.1885, -0.0061,  0.0086,  0.0300,  0.0060,  0.0129
1491431983.4325900078,1491431983.4350099564, -0.1885, -0.0061,  0.0086,  0.0300,  0.0060,  0.0129
1491431983.4353818893,1491431983.4376859665, -0.1885, -0.0061,  0.0086,  0.0256,  0.0059,  0.0124
1491431983.4380569458,1491431983.4403660297, -0.1885, -0.0061,  0.0086,  0.0256,  0.0059,  0.0124
1491431983.4407360554,1491431983.4430420399, -0.1885, -0.0061,  0.0086,  0.0256,  0.0059,  0.0124
1491431983.4434111118,1491431983.4458220005, -0.1885, -0.0061,  0.0086,  0.0256,  0.0059,  0.0124
1491431983.4462010860,1491431983.4486238956, -0.1978, -0.0164,  0.0286,  0.0248,  0.0056,  0.0189
1491431983.4489989281,1491431983.4514200687, -0.1978, -0.0164,  0.0286,  0.0248,  0.0056,  0.0189
1491431983.4517960548,1491431983.4543669224, -0.1978, -0.0164,  0.0286,  0.0248,  0.0056,  0.0189
1491431983.4547441006,1491431983.4571740627, -0.1978, -0.0164,  0.0286,  0.0248,  0.0056,  0.0257
1491431983.4575500488,1491431983.4599750042, -0.1978, -0.0164,  0.0286,  0.0285,  0.0074,  0.0257
1491431983.4603519440,1491431983.4627840519, -0.1978, -0.0164,  0.0286,  0.0285,  0.0074,  0.0257
1491431983.4631600380,1491431983.4655950069, -0.1978, -0.0164,  0.0286,  0.0285,  0.0074,  0.0257
1491431983.4659709930,1491431983.4684040546, -0.1933, -0.0084,  0.0252,  0.0244,  0.0061,  0.0281
1491431983.4687809944,1491431983.4712131023, -0.1933, -0.0084,  0.0252,  0.0244,  0.0061,  0.0281
1491431983.4715909958,1491431983.4740159512, -0.1933, -0.0084,  0.0252,  0.0244,  0.0061,  0.0281
1491431983.4744451046,1491431983.4768788815, -0.1933, -0.0084,  0.0252,  0.0244,  0.0061,  0.0281
1491431983.4772551060,1491431983.4796829224, -0.1933, -0.0084,  0.0252,  0.0204,  0.0085,  0.0290
1491431983.4800620079,1491431983.4824950695, -0.1933, -0.0084,  0.0252,  0.0204,  0.0085,  0.0290
1491431983.4828720093,1491431983.4852569103, -0.1933, -0.0084,  0.0252,  0.0204,  0.0085,  0.0290
1491431983.4856259823,1491431983.4879300594, -0.2002, -0.0131,  0.0096,  0.0204,  0.0085,  0.0368
1491431983.4882988930,1491431983.4906079769, -0.2002, -0.0131,  0.0096,  0.0125,  0.0135,  0.0315
1491431983.4909760952,1491431983.4932780266, -0.2002, -0.0131,  0.0096,  0.0125,  0.0135,  0.0315
1491431983.4936449528,1491431983.4960589409, -0.2002, -0.0131,  0.0096,  0.0125,  0.0135,  0.0315
1491431983.4964361191,1491431983.4988689423, -0.2002, -0.0131,  0.0096,  0.0125,  0.0173,  0.0358
1491431983.4992439747,1491431983.5016698837, -0.2002, -0.0131,  0.0096, -0.0016,  0.0173,  0.0358
1491431983.5020489693,1491431983.5045208931, -0.2002, -0.0131,  0.0096, -0.0016,  0.0173,  0.0358
1491431983.5048990250,1491431983.5073330402, -0.1924,  0.0000,  0.0270, -0.0016,  0.0173,  0.0358
1491431983.5077090263,1491431983.5101349354, -0.1925,  0.0000,  0.0270, -0.0067,  0.0199,  0.0367
1491431983.5105130672,1491431983.5129439831, -0.1925,  0.0000,  0.0270, -0.0067,  0.0199,  0.0367
1491431983.5133230686,1491431983.5157630444, -0.1925,  0.0000,  0.0270, -0.0067,  0.0199,  0.0367
1491431983.5161390305,1491431983.5185630322, -0.1925,  0.0000,  0.0270, -0.0067,  0.0199,  0.0367
1491431983.5189409256,1491431983.5213699341, -0.1925,  0.0000,  0.0270, -0.0072,  0.0257,  0.0363
1491431983.5217459202,1491431983.5241870880, -0.1925,  0.0000,  0.0270, -0.0072,  0.0257,  0.0363
1491431983.5245630741,1491431983.5269949436, -0.1925,  0.0004,  0.0217, -0.0072,  0.0257,  0.0363
1491431983.5273709297,1491431983.5298030376, -0.2060,  0.0004,  0.0217, -0.0072,  0.0262,  0.0366
1491431983.5301780701,1491431983.5326030254, -0.2060,  0.0004,  0.0217, -0.0013,  0.0262,  0.0366
1491431983.5329790115,1491431983.5353629589, -0.2060,  0.0004,  0.0217, -0.0013,  0.0262,  0.0366
1491431983.5357310772,1491431983.5380380154, -0.2060,  0.0004,  0.0217, -0.0013,  0.0262,  0.0366
1491431983.5384058952,1491431983.5407099724, -0.2060,  0.0004,  0.0217,  0.0270,  0.0260,  0.0443
1491431983.5410790443,1491431983.5433878899, -0.2060,  0.0004,  0.0217,  0.0270,  0.0260,  0.0443
1491431983.5437579155,1491431983.5461800098, -0.2060,  0.0004, -0.0147,  0.0270,  0.0260,  0.0443
1491431983.5466659069,1491431983.5490839481, -0.2644, -0.0446, -0.0147,  0.0270,  0.0260,  0.0443
1491431983.5494599342,1491431983.5518789291, -0.2644, -0.0446, -0.0147,  0.0446,  0.0438,  0.0626
1491431983.5522520542,1491431983.5547409058, -0.2644, -0.0446, -0.0147,  0.0446,  0.0438,  0.0626
1491431983.5551199913,1491431983.5575520992, -0.2644, -0.0446, -0.0147,  0.0446,  0.0438,  0.0626
1491431983.5579268932,1491431983.5603539944, -0.2644, -0.0446, -0.0147,  0.0446,  0.0438,  0.0783
1491431983.5607290268,1491431983.5631558895, -0.2644, -0.0446, -0.0147,  0.0577,  0.0588,  0.0783
1491431983.5635330677,1491431983.5659830570, -0.2644, -0.0446,  0.0469,  0.0577,  0.0588,  0.0783
1491431983.5663580894,1491431983.5687880516, -0.2008,  0.0181,  0.0469,  0.0577,  0.0588,  0.0783
1491431983.5691640377,1491431983.5715920925, -0.2008,  0.0181,  0.0469,  0.1252,  0.0533,  0.0732
1491431983.5719668865,1491431983.5744140148, -0.2008,  0.0181,  0.0469,  0.1252,  0.0533,  0.0732
1491431983.5747890472,1491431983.5772109032, -0.2008,  0.0181,  0.0469,  0.1252,  0.0533,  0.0732
1491431983.5775868893,1491431983.5800130367, -0.2008,  0.0181,  0.0469,  0.1252,  0.0533,  0.0732
1491431983.5803871155,1491431983.5828139782, -0.2008,  0.0181,  0.0469,  0.1710,  0.0446,  0.0718
1491431983.5831909180,1491431983.5855638981, -0.2008,  0.0181, -0.0234,  0.1710,  0.0446,  0.0718
1491431983.5859320164,1491431983.5882449150, -0.1991,  0.0183, -0.0217,  0.1710,  0.0446,  0.0718
1491431983.5886120796,1491431983.5909149647, -0.1991,  0.0183, -0.0217,  0.1710,  0.0446,  0.0791
1491431983.5912818909,1491431983.5935831070, -0.1991,  0.0183, -0.0217,  0.1901,  0.0378,  0.0791
1491431983.5939519405,1491431983.5962710381, -0.1991,  0.0183, -0.0217,  0.1901,  0.0378,  0.0791
1491431983.5966389179,1491431983.5989360809, -0.1991,  0.0183, -0.0217,  0.1901,  0.0378,  0.0791
1491431983.5993049145,1491431983.6016089916, -0.1991,  0.0183, -0.0217,  0.1901,  0.0457,  0.0877
1491431983.6019759178,1491431983.6043379307, -0.1991,  0.0183, -0.0217,  0.1989,  0.0433,  0.0877
1491431983.6047129631,1491431983.6071460247, -0.1670, -0.0231, -0.0194,  0.1989,  0.0433,  0.0877
1491431983.6075220108,1491431983.6099550724, -0.1670, -0.0231, -0.0194,  0.1989,  0.0433,  0.0877
1491431983.6103310585,1491431983.6127550602, -0.1670, -0.0231, -0.0194,  0.1697,  0.0385,  0.1006
1491431983.6131320000,1491431983.6155760288, -0.1670, -0.0231, -0.0194,  0.1697,  0.0385,  0.1006
1491431983.6159529686,1491431983.6183879375, -0.1670, -0.0231, -0.0194,  0.1697,  0.0385,  0.1006
1491431983.6187629700,1491431983.6211900711, -0.1670, -0.0231, -0.0194,  0.1697,  0.0385,  0.1006
1491431983.6215679646,1491431983.6239929199, -0.1670, -0.0231, -0.0194,  0.1196,  0.0231,  0.1393
1491431983.6244170666,1491431983.6268401146, -0.2573, -0.0469,  0.0058,  0.1196,  0.0231,  0.1393
1491431983.6272161007,1491431983.6296420097, -0.2573, -0.0469,  0.0058,  0.1196,  0.0231,  0.1393
1491431983.6300210953,1491431983.6324510574, -0.2573, -0.0469,  0.0058,  0.1196,  0.0466,  0.1916
1491431983.6328260899,1491431983.6351909637, -0.2573, -0.0469,  0.0058,  0.0869,  0.0402,  0.1916
1491431983.6355609894,1491431983.6378591061, -0.2573, -0.0469,  0.0058,  0.0869,  0.0402,  0.1916
1491431983.6382279396,1491431983.6405370235, -0.2573, -0.0469,  0.0058,  0.0869,  0.0402,  0.1916
1491431983.6409060955,1491431983.6432120800, -0.2573, -0.0469,  0.0058,  0.0778,  0.0270,  0.2448
1491431983.6435809135,1491431983.6459879875, -0.3354, -0.0354,  0.0170,  0.0778,  0.0270,  0.2448
1491431983.6463639736,1491431983.6487960815, -0.3299, -0.0354,  0.0170,  0.0778,  0.0270,  0.2448
1491431983.6491720676,1491431983.6516020298, -0.3299, -0.0354,  0.0170,  0.0778,  0.0270,  0.2448
1491431983.6519780159,1491431983.6544189453, -0.3299, -0.0354,  0.0170,  0.0904,  0.0375,  0.2938
1491431983.6547958851,1491431983.6572248936, -0.3299, -0.0354,  0.0170,  0.0904,  0.0375,  0.2938
1491431983.6576011181,1491431983.6600298882, -0.3299, -0.0354,  0.0170,  0.0904,  0.0375,  0.2938
1491431983.6604061127,1491431983.6628370285, -0.3299, -0.0354,  0.0170,  0.0904,  0.0375,  0.3406
1491431983.6633260250,1491431983.6657640934, -0.3299, -0.0967,  0.0074,  0.1169,  0.0578,  0.3381
1491431983.6661410332,1491431983.6685690880, -0.3095, -0.0967,  0.0074,  0.1169,  0.0578,  0.3381
1491431983.6689460278,1491431983.6713759899, -0.3095, -0.0967,  0.0074,  0.1169,  0.0578,  0.3381
1491431983.6717529297,1491431983.6741878986, -0.3095, -0.0967,  0.0074,  0.1184,  0.0571,  0.3830
1491431983.6745650768,1491431983.6769990921, -0.3095, -0.0967,  0.0074,  0.1184,  0.0571,  0.3830
1491431983.6773760319,1491431983.6798019409, -0.3095, -0.0967,  0.0074,  0.1184,  0.0571,  0.3830
1491431983.6801800728,1491431983.6826040745, -0.3095, -0.0967,  0.0074,  0.1184,  0.0571,  0.3830
1491431983.6829829216,1491431983.6853649616, -0.3095, -0.1573,  0.0093,  0.1262,  0.0520,  0.4447
1491431983.6857349873,1491431983.6880331039, -0.2690, -0.1573,  0.0093,  0.1262,  0.0520,  0.4447
1491431983.6884019375,1491431983.6907079220, -0.2690, -0.1573,  0.0093,  0.1262,  0.0520,  0.4447
1491431983.6910779476,1491431983.6933829784, -0.2690, -0.1573,  0.0093,  0.1262,  0.0520,  0.4447
1491431983.6937520504,1491431983.6960608959, -0.2690, -0.1573,  0.0093,  0.1283,  0.0399,  0.5236
1491431983.6964299679,1491431983.6987380981, -0.2690, -0.1573,  0.0093,  0.1283,  0.0399,  0.5236
1491431983.6991069317,1491431983.7014110088, -0.2690, -0.1573,  0.0093,  0.1283,  0.0399,  0.5236
1491431983.7017800808,1491431983.7041349411, -0.2690, -0.1573,  0.0093,  0.1283,  0.0399,  0.6096
1491431983.7045149803,1491431983.7069509029, -0.2684, -0.2271,  0.0548,  0.1570,  0.0212,  0.6113
1491431983.7073259354,1491431983.7097480297, -0.2684, -0.2271,  0.0548,  0.1570,  0.0212,  0.6113
1491431983.7101249695,1491431983.7125630379, -0.2684, -0.2271,  0.0548,  0.1570,  0.0212,  0.6113
1491431983.7129380703,1491431983.7153780460, -0.2684, -0.2271,  0.0548,  0.2290, -0.0206,  0.7146
1491431983.7157530785,1491431983.7181808949, -0.2684, -0.2271,  0.0548,  0.2290, -0.0206,  0.7146
1491431983.7185568810,1491431983.7209880352, -0.2684, -0.2271,  0.0548,  0.2290, -0.0206,  0.7146
1491431983.7213630676,1491431983.7237908840, -0.2684, -0.2271,  0.0548,  0.2290, -0.0206,  0.7146
1491431983.7241768837,1491431983.7266070843, -0.4359, -0.1594,  0.0473,  0.3013, -0.1339,  0.8288
1491431983.7269830704,1491431983.7294149399, -0.4359, -0.1594,  0.0473,  0.3013, -0.1339,  0.8288
1491431983.7297921181,1491431983.7322189808, -0.4359, -0.1594,  0.0473,  0.3013, -0.1339,  0.8288
1491431983.7325930595,1491431983.7349829674, -0.4359, -0.1594,  0.0473,  0.3013, -0.1339,  0.9059
1491431983.7353520393,1491431983.7376539707, -0.4359, -0.1594,  0.0473,  0.2397, -0.2916,  0.9059
1491431983.7380230427,1491431983.7403221130, -0.4359, -0.1594,  0.0473,  0.2397, -0.2916,  0.9059
1491431983.7406890392,1491431983.7429978848, -0.4359, -0.1594,  0.0473,  0.2397, -0.2916,  0.9059
1491431983.7433679104,1491431983.7457830906, -0.6343,  0.1311,  0.1452,  0.2397, -0.2102,  0.9774
1491431983.7461590767,1491431983.7485899925, -0.6343,  0.1311,  0.1452,  0.1292, -0.2102,  0.9774
1491431983.7489640713,1491431983.7513909340, -0.6343,  0.1311,  0.1452,  0.1292, -0.2102,  0.9774
1491431983.7517650127,1491431983.7541968822, -0.6343,  0.1311,  0.1452,  0.1292, -0.2102,  0.9774
1491431983.7545719147,1491431983.7570009232, -0.6343,  0.1311,  0.1452,  0.2004, -0.1615,  0.9840
1491431983.7573759556,1491431983.7598040104, -0.6343,  0.1311,  0.1452,  0.2004, -0.1615,  0.9840
1491431983.7601790428,1491431983.7626020908, -0.6343,  0.1311,  0.1452,  0.2004, -0.1615,  0.9840
1491431983.7629780769,1491431983.7654249668, -0.7347, -0.0916,  0.1487,  0.2004, -0.1615,  0.9840
1491431983.7658009529,1491431983.7682299614, -0.7347, -0.0916,  0.1487,  0.2763, -0.1411,  0.9070
1491431983.7686049938,1491431983.7710258961, -0.7347, -0.0916,  0.1487,  0.2763, -0.1411,  0.9070
1491431983.7713999748,1491431983.7738349438, -0.7347, -0.0916,  0.1487,  0.2763, -0.1411,  0.9070
1491431983.7742209435,1491431983.7766530514, -0.7347, -0.0916,  0.1487,  0.2763, -0.0561,  0.8288
1491431983.7770299911,1491431983.7794620991, -0.7347, -0.0916,  0.1487,  0.2123, -0.0561,  0.8288
1491431983.7799439430,1491431983.7823739052, -0.7347, -0.0916,  0.1487,  0.2123, -0.0561,  0.8288
1491431983.7827498913,1491431983.7851369381, -0.2806, -0.3308,  0.0704,  0.2123, -0.0561,  0.8288
1491431983.7855060101,1491431983.7878139019, -0.2806, -0.3308,  0.0704,  0.1122,  0.0150,  0.7167
1491431983.7881848812,1491431983.7904889584, -0.2806, -0.3308,  0.0704,  0.1122,  0.0150,  0.7167
1491431983.7908580303,1491431983.7931680679, -0.2806, -0.3308,  0.0704,  0.1122,  0.0150,  0.7167
1491431983.7935369015,1491431983.7959840298, -0.2806, -0.3308,  0.0704,  0.1122,  0.0150,  0.7167
1491431983.7963619232,1491431983.7987821102, -0.2806, -0.3308,  0.0704, -0.0608,  0.0643,  0.5645
1491431983.7991590500,1491431983.8015890121, -0.2806, -0.3308,  0.0704, -0.0608,  0.0643,  0.5645
1491431983.8019640446,1491431983.8044049740, -0.2806, -0.2517,  0.1448, -0.0608,  0.0643,  0.5645
1491431983.8047819138,1491431983.8072090149, -0.1520, -0.2517,  0.1448, -0.0608,  0.0643,  0.2382
1491431983.8075850010,1491431983.8100121021, -0.1520, -0.2517,  0.1448, -0.1748,  0.0567,  0.2382
1491431983.8103868961,1491431983.8128089905, -0.1520, -0.2517,  0.1448, -0.1748,  0.0567,  0.2382
1491431983.8131840229,1491431983.8156239986, -0.1520, -0.2517,  0.1448, -0.1748,  0.0567,  0.2382
1491431983.8159999847,1491431983.8184330463, -0.1520, -0.2517,  0.1448, -0.3764,  0.0760,  0.0462
1491431983.8188080788,1491431983.8212399483, -0.1520, -0.2517,  0.1448, -0.3764,  0.0760,  0.0462
1491431983.8216149807,1491431983.8240499496, -0.1520, -0.1506,  0.0475, -0.3764,  0.0760,  0.0462
1491431983.8244760036,1491431983.8269059658, -0.3016, -0.1506,  0.0475, -0.3764,  0.0760,  0.0462
1491431983.8272829056,1491431983.8297109604, -0.3016, -0.1506,  0.0475, -0.3901,  0.1575, -0.0159
1491431983.8300859928,1491431983.8325190544, -0.3016, -0.1506,  0.0475, -0.3901,  0.1575, -0.0159
1491431983.8328950405,1491431983.8352730274, -0.3016, -0.1506,  0.0475, -0.3901,  0.1575, -0.0159
1491431983.8356449604,1491431983.8379440308, -0.3016, -0.1506,  0.0475, -0.3901,  0.1575, -0.0399
1491431983.8383119106,1491431983.8406200409, -0.3016, -0.1506,  0.0475, -0.3228,  0.1787, -0.0399
1491431983.8409891129,1491431983.8432879448, -0.3016, -0.1506, -0.0072, -0.3228,  0.1787, -0.0399
1491431983.8436560631,1491431983.8460080624, -0.1251, -0.0015, -0.0014, -0.3228,  0.1787, -0.0399
1491431983.8463790417,1491431983.8486819267, -0.1251, -0.0015, -0.0014, -0.3228,  0.1650, -0.1150
1491431983.8490540981,1491431983.8513500690, -0.1251, -0.0015, -0.0014, -0.2180,  0.1650, -0.1150
1491431983.8517210484,1491431983.8540320396, -0.1251, -0.0015, -0.0014, -0.2180,  0.1650, -0.1150
1491431983.8544659615,1491431983.8568930626, -0.1251, -0.0015, -0.0014, -0.2180,  0.1650, -0.1150
1491431983.8572731018,1491431983.8596990108, -0.1251, -0.0015, -0.0014, -0.1118,  0.1517, -0.2409
1491431983.8600790501,1491431983.8625030518, -0.1251, -0.0015, -0.0014, -0.1118,  0.1517, -0.2409
1491431983.8628818989,1491431983.8653221130, -0.0434, -0.0007, -0.0171, -0.1118,  0.1517, -0.2409
1491431983.8657000065,1491431983.8681299686, -0.0434, -0.0007, -0.0171, -0.1118,  0.1517, -0.2409
1491431983.8685059547,1491431983.8709330559, -0.0434, -0.0007, -0.0171, -0.0358,  0.1464, -0.3910
1491431983.8713090420,1491431983.8737390041, -0.0434, -0.0007, -0.0171, -0.0358,  0.1464, -0.3910
1491431983.8741230965,1491431983.8765640259, -0.0434, -0.0007, -0.0171, -0.0358,  0.1464, -0.3910
1491431983.8769390583,1491431983.8793718815, -0.0434, -0.0007, -0.0171, -0.0358,  0.1542, -0.5428
1491431983.8797500134,1491431983.8821740150, -0.0434, -0.0007, -0.0171,  0.0117,  0.1534, -0.5428
1491431983.8825500011,1491431983.8849549294, -0.0610, -0.0318,  0.0079,  0.0117,  0.1534, -0.5428
1491431983.8853249550,1491431983.8876309395, -0.0610, -0.0318,  0.0079,  0.0117,  0.1534, -0.5428
1491431983.8880000114,1491431983.8903050423, -0.0610, -0.0318,  0.0079,  0.0366,  0.1593, -0.6722
1491431983.8906750679,1491431983.8929738998, -0.0610, -0.0318,  0.0079,  0.0366,  0.1593, -0.6722
1491431983.8934431076,1491431983.8958489895, -0.0610, -0.0318,  0.0079,  0.0366,  0.1593, -0.6722
1491431983.8962268829,1491431983.8986599445, -0.0610, -0.0318,  0.0079,  0.0366,  0.1593, -0.6722
1491431983.8990368843,1491431983.9014630318, -0.0610, -0.0318,  0.0079,  0.0518,  0.1681, -0.7634
1491431983.9018380642,1491431983.9043080807, -0.0901, -0.0753, -0.0049,  0.0518,  0.1681, -0.7634
1491431983.9046831131,1491431983.9071190357, -0.0901, -0.0753, -0.0049,  0.0518,  0.1681, -0.7634
1491431983.9074950218,1491431983.9099209309, -0.0901, -0.0753, -0.0049,  0.0518,  0.1681, -0.8233
1491431983.9102981091,1491431983.9127240181, -0.0901, -0.0753, -0.0049,  0.0632,  0.1688, -0.8233
1491431983.9131009579,1491431983.9155380726, -0.0901, -0.0753, -0.0049,  0.0632,  0.1688, -0.8233
1491431983.9159140587,1491431983.9183390141, -0.0901, -0.0753, -0.0049,  0.0632,  0.1688, -0.8233
1491431983.9187150002,1491431983.9211471081, -0.0901, -0.0753, -0.0049,  0.0599,  0.1576, -0.8608
1491431983.9215240479,1491431983.9239521027, -0.1087, -0.0893,  0.0042,  0.0599,  0.1576, -0.8608
1491431983.9243319035,1491431983.9267609119, -0.1087, -0.0893,  0.0042,  0.0599,  0.1576, -0.8608
1491431983.9271390438,1491431983.9295740128, -0.1087, -0.0893,  0.0042,  0.0599,  0.1576, -0.8608
1491431983.9299519062,1491431983.9323771000, -0.1087, -0.0893,  0.0042,  0.0377,  0.1352, -0.8764
1491431983.9327549934,1491431983.9351549149, -0.1087, -0.0893,  0.0042,  0.0377,  0.1352, -0.8764
1491431983.9355258942,1491431983.9378321171, -0.1087, -0.0893,  0.0042,  0.0377,  0.1352, -0.8764
1491431983.9382019043,1491431983.9405119419, -0.1087, -0.0893,  0.0042,  0.0377,  0.1352, -0.8764
1491431983.9408810139,1491431983.9431879520, -0.1712, -0.0857,  0.0273,  0.0077,  0.1129, -0.8774
1491431983.9435570240,1491431983.9458699226, -0.1644, -0.0857,  0.0273,  0.0077,  0.1129, -0.8774
1491431983.9462420940,1491431983.9485359192, -0.1644, -0.0857,  0.0273,  0.0077,  0.1129, -0.8774
1491431983.9489090443,1491431983.9512140751, -0.1644, -0.0857,  0.0273,  0.0077,  0.1129, -0.8666
1491431983.9515850544,1491431983.9538900852, -0.1644, -0.0857,  0.0273, -0.0081,  0.0922, -0.8666
1491431983.9542710781,1491431983.9567000866, -0.1644, -0.0857,  0.0273, -0.0081,  0.0922, -0.8666
1491431983.9570760727,1491431983.9595029354, -0.1644, -0.0857,  0.0273, -0.0081,  0.0922, -0.8666
1491431983.9598801136,1491431983.9623010159, -0.1644, -0.0857,  0.0529, -0.0121,  0.0689, -0.8478
1491431983.9626779556,1491431983.9651200771, -0.1820, -0.0793,  0.0529, -0.0121,  0.0689, -0.8478
1491431983.9654939175,1491431983.9679219723, -0.1820, -0.0793,  0.0529, -0.0121,  0.0689, -0.8478
1491431983.9682979584,1491431983.9707229137, -0.1820, -0.0793,  0.0529, -0.0121,  0.0689, -0.8478
1491431983.9710988998,1491431983.9735319614, -0.1820, -0.0793,  0.0529, -0.0175,  0.0349, -0.8213
1491431983.9739050865,1491431983.9763410091, -0.1820, -0.0793,  0.0529, -0.0175,  0.0349, -0.8213
1491431983.9767169952,1491431983.9791479111, -0.1820, -0.0793,  0.0529, -0.0175,  0.0349, -0.8213
1491431983.9795238972,1491431983.9819540977, -0.1820, -0.0793,  0.0451, -0.0175,  0.0349, -0.8043
1491431983.9823288918,1491431983.9847409725, -0.2212, -0.0443,  0.0457, -0.0255, -0.0053, -0.8043
1491431983.9851100445,1491431983.9874188900, -0.2212, -0.0443,  0.0457, -0.0255, -0.0053, -0.8043
1491431983.9877889156,1491431983.9900929928, -0.2212, -0.0443,  0.0457, -0.0255, -0.0053, -0.8043
1491431983.9904630184,1491431983.9927630424, -0.2212, -0.0443,  0.0457, -0.0255, -0.0423, -0.8009
1491431983.9931330681,1491431983.9955780506, -0.2212, -0.0443,  0.0457, -0.0360, -0.0423, -0.8009
1491431983.9959540367,1491431983.9983839989, -0.2212, -0.0443,  0.0457, -0.0360, -0.0423, -0.8009
1491431983.9987609386,1491431984.0011909008, -0.2212, -0.0443,  0.0457, -0.0360, -0.0423, -0.8009
1491431984.0015690327,1491431984.0039970875, -0.2462, -0.0304,  0.0266, -0.0459, -0.0804, -0.8150
1491431984.0044260025,1491431984.0068581104, -0.2462, -0.0304,  0.0266, -0.0459, -0.0804, -0.8150
1491431984.0072340965,1491431984.0096631050, -0.2462, -0.0304,  0.0266, -0.0459, -0.0804, -0.8150
1491431984.0101499557,1491431984.0125739574, -0.2462, -0.0304,  0.0266, -0.0459, -0.0804, -0.8150
1491431984.0129480362,1491431984.0153849125, -0.2462, -0.0304,  0.0266, -0.0613, -0.1197, -0.8345
1491431984.0157608986,1491431984.0181910992, -0.2462, -0.0304,  0.0266, -0.0613, -0.1197, -0.8345
1491431984.0185649395,1491431984.0209889412, -0.2462, -0.0304,  0.0266, -0.0613, -0.1197, -0.8345
1491431984.0213670731,1491431984.0237989426, -0.3575, -0.0352,  0.0181, -0.0926, -0.1581, -0.8558
1491431984.0241820812,1491431984.0266170502, -0.3575, -0.0352,  0.0181, -0.0891, -0.1581, -0.8558
1491431984.0269930363,1491431984.0294198990, -0.3575, -0.0352,  0.0181, -0.0891, -0.1581, -0.8558
1491431984.0297970772,1491431984.0322248936, -0.3575, -0.0352,  0.0181, -0.0891, -0.1581, -0.8558
1491431984.0325989723,1491431984.0349829197, -0.3575, -0.0352,  0.0181, -0.1140, -0.1769, -0.8736
1491431984.0353519917,1491431984.0376520157, -0.3575, -0.0352,  0.0181, -0.1140, -0.1769, -0.8736
1491431984.0380198956,1491431984.0403299332, -0.3575, -0.0352,  0.0181, -0.1140, -0.1769, -0.8736
1491431984.0406990051,1491431984.0430018902, -0.5041,  0.0298,  0.0000, -0.1140, -0.1769, -0.8736
1491431984.0433731079,1491431984.0457949638, -0.5041,  0.0298,  0.0000, -0.1227, -0.1796, -0.8714
1491431984.0461719036,1491431984.0485999584, -0.5041,  0.0298,  0.0000, -0.1227, -0.1796, -0.8714
1491431984.0489768982,1491431984.0514059067, -0.5041,  0.0298,  0.0000, -0.1227, -0.1796, -0.8714
1491431984.0517830849,1491431984.0542230606, -0.5041,  0.0298,  0.0000, -0.1227, -0.1796, -0.8418
1491431984.0546009541,1491431984.0570309162, -0.5041,  0.0298,  0.0000, -0.1115, -0.1687, -0.8418
1491431984.0574069023,1491431984.0598349571, -0.5041,  0.0298,  0.0000, -0.1115, -0.1687, -0.8418
1491431984.0602109432,1491431984.0626430511, -0.6254,  0.2080, -0.0010, -0.1115, -0.1687, -0.8418
1491431984.0630180836,1491431984.0654499531, -0.6254,  0.2080, -0.0010, -0.0837, -0.1590, -0.7780
1491431984.0658268929,1491431984.0682580471, -0.6254,  0.2080, -0.0010, -0.0837, -0.1590, -0.7780
1491431984.0686368942,1491431984.0710649490, -0.6254,  0.2080, -0.0010, -0.0837, -0.1590, -0.7780
1491431984.0714430809,1491431984.0738670826, -0.6254,  0.2080, -0.0010, -0.0837, -0.1590, -0.7780
1491431984.0742518902,1491431984.0766870975, -0.6254,  0.2080, -0.0010, -0.0637, -0.1296, -0.6874
1491431984.0770649910,1491431984.0794949532, -0.6254,  0.2080, -0.0010, -0.0637, -0.1296, -0.6874
1491431984.0798730850,1491431984.0823030472, -0.6219,  0.3711,  0.1070, -0.0637, -0.1296, -0.6874
1491431984.0826799870,1491431984.0850780010, -0.6219,  0.3711,  0.1070, -0.0637, -0.1296, -0.5985
1491431984.0854489803,1491431984.0877580643, -0.6219,  0.3711,  0.1070, -0.0598, -0.0640, -0.5985
1491431984.0881268978,1491431984.0904340744, -0.6219,  0.3711,  0.1070, -0.0598, -0.0640, -0.5985
1491431984.0908041000,1491431984.0931110382, -0.6219,  0.3711,  0.1070, -0.0598, -0.0640, -0.5985
1491431984.0934810638,1491431984.0958271027, -0.6219,  0.3711,  0.1070, -0.0754, -0.0042, -0.5266
1491431984.0961968899,1491431984.0985100269, -0.6219,  0.3711,  0.1070, -0.0723, -0.0042, -0.5266
1491431984.0988810062,1491431984.1011810303, -0.6219,  0.4570,  0.0695, -0.0723, -0.0042, -0.5266
1491431984.1015510559,1491431984.1038529873, -0.4495,  0.4565,  0.0695, -0.0723, -0.0042, -0.5266
1491431984.1042299271,1491431984.1066579819, -0.4495,  0.4565,  0.0695, -0.0760,  0.0200, -0.4464
1491431984.1070330143,1491431984.1094589233, -0.4495,  0.4565,  0.0695, -0.0760,  0.0200, -0.4464
1491431984.1098339558,1491431984.1122629642, -0.4495,  0.4565,  0.0695, -0.0760,  0.0200, -0.4464
1491431984.1126399040,1491431984.1151099205, -0.4495,  0.4565,  0.0695, -0.0760,  0.0200, -0.4464
1491431984.1154830456,1491431984.1179080009, -0.4495,  0.4565,  0.0695, -0.0732,  0.0208, -0.3379
1491431984.1182839870,1491431984.1207089424, -0.4495,  0.4565,  0.0695, -0.0732,  0.0208, -0.3379
1491431984.1210849285,1491431984.1235170364, -0.3464,  0.6716,  0.0697, -0.0732,  0.0208, -0.3379
1491431984.1238930225,1491431984.1263310909, -0.3464,  0.6716,  0.0697, -0.0732,  0.0052, -0.1989
1491431984.1268150806,1491431984.1292500496, -0.3464,  0.6716,  0.0697, -0.0649,  0.0019, -0.1989
1491431984.1296279430,1491431984.1320559978, -0.3464,  0.6716,  0.0697, -0.0649,  0.0019, -0.1989
1491431984.1324319839,1491431984.1348710060, -0.3464,  0.6716,  0.0697, -0.0649,  0.0019, -0.1989
1491431984.1352400780,1491431984.1375451088, -0.3464,  0.6716,  0.0697, -0.0339, -0.0087, -0.0519
1491431984.1379139423,1491431984.1402189732, -0.3464,  0.6716,  0.0697, -0.0339, -0.0087, -0.0519
1491431984.1405880451,1491431984.1428959370, -0.3589,  0.7128,  0.0433, -0.0339, -0.0087, -0.0519
1491431984.1432669163,1491431984.1456611156, -0.3589,  0.7128,  0.0433, -0.0339, -0.0087, -0.0519
1491431984.1460371017,1491431984.1484611034, -0.3589,  0.7128,  0.0433, -0.0046, -0.0002,  0.0659
1491431984.1488380432,1491431984.1512699127, -0.3589,  0.7128,  0.0433, -0.0046, -0.0002,  0.0659
1491431984.1516439915,1491431984.1541090012, -0.3589,  0.7128,  0.0433, -0.0046, -0.0002,  0.0659
1491431984.1544880867,1491431984.1569199562, -0.3589,  0.7128,  0.0433, -0.0046, -0.0002,  0.1675
1491431984.1572959423,1491431984.1597249508, -0.3589,  0.7128,  0.0433,  0.0706,  0.0305,  0.1675
1491431984.1600999832,1491431984.1625280380, -0.8821,  0.0704, -0.0548,  0.0706,  0.0305,  0.1675
1491431984.1629049778,1491431984.1653499603, -0.8821,  0.0704, -0.0548,  0.0706,  0.0305,  0.1675
1491431984.1657240391,1491431984.1681509018, -0.8821,  0.0704, -0.0548,  0.1344,  0.0773,  0.4113
1491431984.1685268879,1491431984.1709530354, -0.8821,  0.0704, -0.0548,  0.1344,  0.0773,  0.4113
1491431984.1713280678,1491431984.1737639904, -0.8821,  0.0704, -0.0548,  0.1344,  0.0773,  0.4113
1491431984.1741490364,1491431984.1765780449, -0.8821,  0.0704, -0.0548,  0.1344,  0.0773,  0.4113
1491431984.1769518852,1491431984.1793870926, -0.8821,  0.0704, -0.0548,  0.2332,  0.4888,  0.3024
1491431984.1797609329,1491431984.1821889877, -0.1201, -0.9018, -0.2515,  0.2332,  0.4888,  0.3024
1491431984.1825659275,1491431984.1849629879, -0.1201, -0.9018, -0.2515,  0.2332,  0.4888,  0.3024
1491431984.1853311062,1491431984.1876430511, -0.1201, -0.9018, -0.2515,  0.2332,  0.4888,  0.3571
1491431984.1880118847,1491431984.1903150082, -0.1201, -0.9018, -0.2515, -0.3336,  0.1315,  0.3535
1491431984.1906819344,1491431984.1929869652, -0.1201, -0.9018, -0.2515, -0.3336,  0.1315,  0.3535
1491431984.1933560371,1491431984.1957800388, -0.1201, -0.9018, -0.2515, -0.3336,  0.1315,  0.3535
1491431984.1961569786,1491431984.1985809803, -0.1201, -0.9018, -0.2515, -0.3336, -0.1829,  0.8653
1491431984.1989560127,1491431984.2013878822, -0.3160,  0.4060, -0.2758, -0.2797, -0.1829,  0.8653
1491431984.2017619610,1491431984.2041978836, -0.3160,  0.4060, -0.2758, -0.2797, -0.1829,  0.8653
1491431984.2045750618,1491431984.2070019245, -0.3160,  0.4060, -0.2758, -0.2797, -0.1829,  0.8653
1491431984.2073769569,1491431984.2098050117, -0.3160,  0.4060, -0.2758, -0.2917, -0.0367,  0.9685
1491431984.2101800442,1491431984.2126049995, -0.3160,  0.4060, -0.2758, -0.2917, -0.0367,  0.9685
1491431984.2129819393,1491431984.2153611183, -0.3160,  0.4060, -0.2758, -0.2917, -0.0367,  0.9685
1491431984.2157320976,1491431984.2180390358, -0.3160,  0.4060, -0.2758, -0.2917, -0.0367,  0.9685
1491431984.2184081078,1491431984.2207109928, -0.1832,  0.0640,  0.0688, -0.1752,  0.0019,  0.5801
1491431984.2210800648,1491431984.2233850956, -0.1819,  0.0640,  0.0688, -0.1752,  0.0019,  0.5801
1491431984.2237539291,1491431984.2261838913, -0.1819,  0.0640,  0.0688, -0.1752,  0.0019,  0.5801
1491431984.2265620232,1491431984.2289879322, -0.1819,  0.0640,  0.0688, -0.1752,  0.0019,  0.3023
1491431984.2293651104,1491431984.2317979336, -0.1819,  0.0640,  0.0688,  0.1024, -0.1710,  0.3023
1491431984.2321751118,1491431984.2345890999, -0.1819,  0.0640,  0.0688,  0.1024, -0.1710,  0.3023
1491431984.2349600792,1491431984.2372620106, -0.1819,  0.0640,  0.0688,  0.1024, -0.1710,  0.3023
1491431984.2376310825,1491431984.2399361134, -0.1819,  0.0796,  0.0411,  0.1180, -0.0718,  0.3572
1491431984.2403059006,1491431984.2426168919, -0.1664,  0.0787,  0.0411,  0.1240, -0.0718,  0.3572
1491431984.2430939674,1491431984.2455360889, -0.1664,  0.0787,  0.0411,  0.1240, -0.0718,  0.3572
1491431984.2459149361,1491431984.2483439445, -0.1664,  0.0787,  0.0411,  0.1240, -0.0718,  0.3572
1491431984.2487199306,1491431984.2511401176, -0.1664,  0.0787,  0.0411,  0.0884, -0.0678,  0.3078
1491431984.2515161037,1491431984.2539479733, -0.1664,  0.0787,  0.0411,  0.0884, -0.0678,  0.3078
1491431984.2543330193,1491431984.2567620277, -0.1664,  0.0787,  0.0411,  0.0884, -0.0678,  0.3078
1491431984.2571380138,1491431984.2595670223, -0.1664,  0.0787, -0.0214,  0.0884, -0.0678,  0.2218
1491431984.2599411011,1491431984.2623770237, -0.2454,  0.0540, -0.0182,  0.0604, -0.0694,  0.2236
1491431984.2627539635,1491431984.2651948929, -0.2454,  0.0540, -0.0182,  0.0604, -0.0694,  0.2236
1491431984.2655689716,1491431984.2680029869, -0.2454,  0.0540, -0.0182,  0.0604, -0.0694,  0.2236
1491431984.2683780193,1491431984.2708010674, -0.2454,  0.0540, -0.0182,  0.0760, -0.0377,  0.1765
1491431984.2711780071,1491431984.2736101151, -0.2454,  0.0540, -0.0182,  0.0732, -0.0377,  0.1765
1491431984.2739870548,1491431984.2763159275, -0.2454,  0.0540, -0.0182,  0.0732, -0.0377,  0.1765
1491431984.2766840458,1491431984.2789859772, -0.2454,  0.0540, -0.0182,  0.0732, -0.0377,  0.1765
1491431984.2793540955,1491431984.2816550732, -0.2043,  0.0325,  0.0145,  0.1006, -0.0484,  0.1487
1491431984.2820239067,1491431984.2843539715, -0.2043,  0.0325,  0.0145,  0.1006, -0.0484,  0.1487
1491431984.2847299576,1491431984.2871589661, -0.2043,  0.0325,  0.0145,  0.1006, -0.0484,  0.1487
1491431984.2875359058,1491431984.2899680138, -0.2043,  0.0325,  0.0145,  0.1006, -0.0484,  0.1487
1491431984.2903430462,1491431984.2927680016, -0.2043,  0.0325,  0.0145,  0.0859, -0.0506,  0.1149
1491431984.2931430340,1491431984.2955839634, -0.2043,  0.0325,  0.0145,  0.0859, -0.0506,  0.1149
1491431984.2959620953,1491431984.2983911037, -0.2043,  0.0325,  0.0145,  0.0859, -0.0506,  0.1149
1491431984.2987670898,1491431984.3011929989, -0.2242,  0.0108,  0.0770,  0.0859, -0.0506,  0.0793
1491431984.3015689850,1491431984.3039960861, -0.2242,  0.0108,  0.0770,  0.0580, -0.0305,  0.0793
1491431984.3044419289,1491431984.3068730831, -0.2242,  0.0108,  0.0770,  0.0580, -0.0305,  0.0793
1491431984.3072481155,1491431984.3096768856, -0.2242,  0.0108,  0.0770,  0.0580, -0.0305,  0.0793
1491431984.3100540638,1491431984.3124830723, -0.2242,  0.0108,  0.0770,  0.0653,  0.0023,  0.0591
1491431984.3128581047,1491431984.3153569698, -0.2242,  0.0108,  0.0770,  0.0653,  0.0023,  0.0591
1491431984.3157329559,1491431984.3181650639, -0.2242,  0.0108,  0.0770,  0.0653,  0.0023,  0.0591
1491431984.3185400963,1491431984.3209741116, -0.1920, -0.0050,  0.0184,  0.0653,  0.0023,  0.0591
1491431984.3213500977,1491431984.3237791061, -0.1920, -0.0050,  0.0184,  0.0701,  0.0131,  0.0496
1491431984.3241660595,1491431984.3264720440, -0.1920, -0.0050,  0.0184,  0.0701,  0.0131,  0.0496
1491431984.3268420696,1491431984.3291521072, -0.1920, -0.0050,  0.0184,  0.0701,  0.0131,  0.0496
1491431984.3295199871,1491431984.3318290710, -0.1920, -0.0050,  0.0184,  0.0701,  0.0131,  0.0382
1491431984.3321990967,1491431984.3345360756, -0.1920, -0.0050,  0.0184,  0.0593,  0.0140,  0.0382
1491431984.3349039555,1491431984.3372089863, -0.1920, -0.0050,  0.0184,  0.0593,  0.0140,  0.0382
1491431984.3375799656,1491431984.3398790359, -0.1851, -0.0185,  0.0182,  0.0593,  0.0140,  0.0382
1491431984.3402469158,1491431984.3425579071, -0.1851, -0.0185,  0.0182,  0.0593,  0.0116,  0.0311
1491431984.3429250717,1491431984.3453390598, -0.1851, -0.0185,  0.0182,  0.0409,  0.0116,  0.0311
1491431984.3457150459,1491431984.3481469154, -0.1851, -0.0185,  0.0182,  0.0409,  0.0116,  0.0311
1491431984.3485219479,1491431984.3509581089, -0.1851, -0.0185,  0.0182,  0.0409,  0.0116,  0.0311
1491431984.3513340950,1491431984.3537631035, -0.1851, -0.0185,  0.0182,  0.0298,  0.0110,  0.0257
1491431984.3541469574,1491431984.3565809727, -0.1851, -0.0185,  0.0182,  0.0298,  0.0110,  0.0257
1491431984.3569569588,1491431984.3593850136, -0.1851, -0.0321,  0.0061,  0.0298,  0.0110,  0.0257
1491431984.3598670959,1491431984.3622999191, -0.1870, -0.0321,  0.0061,  0.0298,  0.0110,  0.0257
1491431984.3626759052,1491431984.3651220798, -0.1870, -0.0321,  0.0061,  0.0351,  0.0124,  0.0243
1491431984.3654990196,1491431984.3679239750, -0.1870, -0.0321,  0.0061,  0.0351,  0.0124,  0.0243
1491431984.3683009148,1491431984.3707289696, -0.1870, -0.0321,  0.0061,  0.0351,  0.0124,  0.0243
1491431984.3711071014,1491431984.3735389709, -0.1870, -0.0321,  0.0061,  0.0351,  0.0071,  0.0367
1491431984.3739140034,1491431984.3762369156, -0.1870, -0.0321,  0.0061,  0.0286,  0.0071,  0.0367
1491431984.3766069412,1491431984.3789188862, -0.1870, -0.0325,  0.0522,  0.0286,  0.0071,  0.0367
1491431984.3792879581,1491431984.3815910816, -0.1980, -0.0325,  0.0522,  0.0286,  0.0071,  0.0367
1491431984.3819611073,1491431984.3843228817, -0.1980, -0.0325,  0.0522,  0.0229,  0.0138,  0.0520
1491431984.3847010136,1491431984.3871328831, -0.1980, -0.0325,  0.0522,  0.0229,  0.0138,  0.0520
1491431984.3875100613,1491431984.3899369240, -0.1980, -0.0325,  0.0522,  0.0229,  0.0138,  0.0520
1491431984.3903129101,1491431984.3927431107, -0.1980, -0.0325,  0.0522,  0.0229,  0.0138,  0.0520
1491431984.3931200504,1491431984.3955581188, -0.1980, -0.0325,  0.0522,  0.0181,  0.0223,  0.0621
1491431984.3959341049,1491431984.3983600140, -0.1980, -0.0325,  0.0387,  0.0181,  0.0223,  0.0621
1491431984.3987360001,1491431984.4011659622, -0.1957, -0.0144,  0.0387,  0.0181,  0.0223,  0.0621
1491431984.4015409946,1491431984.4039709568, -0.1957, -0.0144,  0.0387,  0.0181,  0.0223,  0.0648
1491431984.4043450356,1491431984.4067740440, -0.1957, -0.0144,  0.0387,  0.0143,  0.0297,  0.0648
1491431984.4071509838,1491431984.4095890522, -0.1957, -0.0144,  0.0387,  0.0143,  0.0297,  0.0648
1491431984.4099640846,1491431984.4123909473, -0.1957, -0.0144,  0.0387,  0.0143,  0.0297,  0.0648
1491431984.4127659798,1491431984.4152040482, -0.1957, -0.0144,  0.0387,  0.0088,  0.0403,  0.0642
1491431984.4155809879,1491431984.4180150032, -0.1957, -0.0144,  0.0231,  0.0088,  0.0403,  0.0642
1491431984.4183909893,1491431984.4208259583, -0.1919,  0.0103,  0.0223,  0.0088,  0.0403,  0.0642
1491431984.4212028980,1491431984.4236330986, -0.1919,  0.0103,  0.0223,  0.0088,  0.0403,  0.0642
1491431984.4240090847,1491431984.4263160229, -0.1919,  0.0103,  0.0223,  0.0150,  0.0562,  0.0555
1491431984.4266860485,1491431984.4289920330, -0.1919,  0.0103,  0.0223,  0.0150,  0.0562,  0.0555
1491431984.4293589592,1491431984.4316720963, -0.1919,  0.0103,  0.0223,  0.0150,  0.0562,  0.0555
1491431984.4320390224,1491431984.4345870018, -0.1919,  0.0103,  0.0223,  0.0150,  0.0562,  0.0555
1491431984.4349730015,1491431984.4384140968, -0.1919,  0.0103,  0.0145,  0.0078,  0.0565,  0.0516
1491431984.4387969971,1491431984.4418389797, -0.1864,  0.0003,  0.0091,  0.0078,  0.0565,  0.0516
1491431984.4422409534,1491431984.4447538853, -0.1864,  0.0003,  0.0091,  0.0078,  0.0565,  0.0516
1491431984.4451310635,1491431984.4475550652, -0.1864,  0.0003,  0.0091,  0.0107,  0.0500,  0.0509
1491431984.4479310513,1491431984.4503560066, -0.1864,  0.0003,  0.0091,  0.0107,  0.0500,  0.0509
1491431984.4507310390,1491431984.4531610012, -0.1864,  0.0003,  0.0091,  0.0107,  0.0500,  0.0509
1491431984.4535379410,1491431984.4559810162, -0.1864,  0.0003,  0.0091,  0.0029,  0.0581,  0.0499
1491431984.4563570023,1491431984.4587829113, -0.1840,  0.0073, -0.0175,  0.0013,  0.0581,  0.0499
1491431984.4591600895,1491431984.4615828991, -0.1840,  0.0073, -0.0175,  0.0013,  0.0581,  0.0499
1491431984.4619619846,1491431984.4643909931, -0.1840,  0.0073, -0.0175,  0.0013,  0.0581,  0.0499
1491431984.4647610188,1491431984.4670600891, -0.1840,  0.0073, -0.0175, -0.0022,  0.0627,  0.0486
1491431984.4674279690,1491431984.4697389603, -0.1840,  0.0073, -0.0175, -0.0022,  0.0627,  0.0486
1491431984.4701080322,1491431984.4724130630, -0.1840,  0.0073, -0.0175, -0.0022,  0.0627,  0.0486
1491431984.4727818966,1491431984.4751789570, -0.1840,  0.0073, -0.0175, -0.0022,  0.0627,  0.0486
1491431984.4757049084,1491431984.4781200886, -0.1840,  0.0020,  0.0074,  0.0027,  0.0619,  0.0456
1491431984.4784970284,1491431984.4809029102, -0.1895,  0.0020,  0.0074,  0.0027,  0.0619,  0.0456
1491431984.4812779427,1491431984.4836859703, -0.1895,  0.0020,  0.0074,  0.0027,  0.0619,  0.0456
1491431984.4840970039,1491431984.4865329266, -0.1895,  0.0020,  0.0074,  0.0027,  0.0619,  0.0444
1491431984.4869110584,1491431984.4893341064, -0.1895,  0.0020,  0.0074,  0.0093,  0.0619,  0.0444
1491431984.4897110462,1491431984.4921391010, -0.1895,  0.0020,  0.0074,  0.0093,  0.0619,  0.0444
1491431984.4925179482,1491431984.4949560165, -0.1895,  0.0020,  0.0074,  0.0093,  0.0619,  0.0444
1491431984.4953329563,1491431984.4977600574, -0.1895, -0.0058,  0.0062,  0.0211,  0.0641,  0.0417
1491431984.4981369972,1491431984.5005679131, -0.1902, -0.0028,  0.0062,  0.0211,  0.0641,  0.0417
1491431984.5009450912,1491431984.5033700466, -0.1902, -0.0028,  0.0062,  0.0211,  0.0641,  0.0417
1491431984.5037469864,1491431984.5061810017, -0.1902, -0.0028,  0.0062,  0.0211,  0.0641,  0.0417
1491431984.5065579414,1491431984.5089879036, -0.1902, -0.0028,  0.0062,  0.0264,  0.0645,  0.0464
1491431984.5093638897,1491431984.5117878914, -0.1902, -0.0028,  0.0062,  0.0264,  0.0645,  0.0464
1491431984.5121650696,1491431984.5146069527, -0.1902, -0.0028,  0.0062,  0.0264,  0.0645,  0.0464
1491431984.5149819851,1491431984.5174059868, -0.1902, -0.0028,  0.0244,  0.0264,  0.0645,  0.0537
1491431984.5177829266,1491431984.5202040672, -0.1803,  0.0237,  0.0244,  0.0550,  0.0680,  0.0537
1491431984.5205810070,1491431984.5230109692, -0.1803,  0.0237,  0.0244,  0.0550,  0.0680,  0.0537
1491431984.5233869553,1491431984.5257480145, -0.1803,  0.0237,  0.0244,  0.0550,  0.0680,  0.0537
1491431984.5261180401,1491431984.5284190178, -0.1803,  0.0237,  0.0244,  0.0828,  0.0630,  0.0594
1491431984.5287868977,1491431984.5310909748, -0.1803,  0.0237,  0.0244,  0.0828,  0.0630,  0.0594
1491431984.5314600468,1491431984.5337610245, -0.1803,  0.0237,  0.0244,  0.0828,  0.0630,  0.0594
1491431984.5341289043,1491431984.5365579128, -0.1803,  0.0237,  0.0244,  0.0828,  0.0630,  0.0594
1491431984.5369338989,1491431984.5393579006, -0.2154, -0.0083,  0.0099,  0.0861,  0.0585,  0.0707
1491431984.5397350788,1491431984.5421619415, -0.2154, -0.0083,  0.0099,  0.0861,  0.0585,  0.0707
1491431984.5425400734,1491431984.5449819565, -0.2154, -0.0083,  0.0099,  0.0861,  0.0585,  0.0707
1491431984.5453579426,1491431984.5477800369, -0.2154, -0.0083,  0.0099,  0.0861,  0.0585,  0.0785
1491431984.5481569767,1491431984.5505859852, -0.2154, -0.0083,  0.0099,  0.0953,  0.0554,  0.0859
1491431984.5509629250,1491431984.5533940792, -0.2154, -0.0083,  0.0099,  0.0953,  0.0554,  0.0859
1491431984.5537719727,1491431984.5562140942, -0.2154, -0.0083,  0.0099,  0.0953,  0.0554,  0.0859
1491431984.5565929413,1491431984.5590269566, -0.2956, -0.0904, -0.1029,  0.1183,  0.0482,  0.1052
1491431984.5594060421,1491431984.5618340969, -0.2956, -0.0904, -0.1029,  0.1183,  0.0482,  0.1052
1491431984.5622119904,1491431984.5646169186, -0.2956, -0.0904, -0.1029,  0.1183,  0.0482,  0.1052
1491431984.5649878979,1491431984.5672950745, -0.2956, -0.0904, -0.1029,  0.1183,  0.0482,  0.1052
1491431984.5676651001,1491431984.5699729919, -0.2956, -0.0904, -0.1029,  0.0866,  0.0600,  0.1652
1491431984.5703399181,1491431984.5726358891, -0.2956, -0.0904, -0.1029,  0.0866,  0.0600,  0.1652
1491431984.5730059147,1491431984.5753929615, -0.2956, -0.0904, -0.1029,  0.0866,  0.0600,  0.1652
1491431984.5757699013,1491431984.5781960487, -0.2744, -0.0489, -0.0472,  0.0866,  0.0600,  0.1652
1491431984.5785729885,1491431984.5810000896, -0.2744, -0.0489, -0.0472,  0.0906,  0.0349,  0.2042
1491431984.5813770294,1491431984.5837979317, -0.2744, -0.0489, -0.0472,  0.0906,  0.0349,  0.2042
1491431984.5841820240,1491431984.5865969658, -0.2744, -0.0489, -0.0472,  0.0906,  0.0349,  0.2042
1491431984.5869719982,1491431984.5894029140, -0.2744, -0.0489, -0.0472,  0.0906,  0.0115,  0.2345
1491431984.5897789001,1491431984.5922079086, -0.2744, -0.0489, -0.0472,  0.1020,  0.0085,  0.2345
1491431984.5926940441,1491431984.5951299667, -0.2744, -0.0489, -0.0472,  0.1020,  0.0085,  0.2345
1491431984.5955069065,1491431984.5979340076, -0.3027, -0.0595, -0.0414,  0.1020,  0.0085,  0.2345
1491431984.5983099937,1491431984.6007320881, -0.3027, -0.0595, -0.0414,  0.0825, -0.0080,  0.2774
1491431984.6011109352,1491431984.6035408974, -0.3027, -0.0595, -0.0414,  0.0825, -0.0080,  0.2774
1491431984.6039180756,1491431984.6063549519, -0.3027, -0.0595, -0.0414,  0.0825, -0.0080,  0.2774
1491431984.6067309380,1491431984.6091558933, -0.3027, -0.0595, -0.0414,  0.0825, -0.0080,  0.2774
1491431984.6095340252,1491431984.6119630337, -0.3027, -0.0595, -0.0414,  0.0764, -0.0165,  0.3153
1491431984.6123380661,1491431984.6147439480, -0.3027, -0.0595, -0.0414,  0.0764, -0.0165,  0.3153
1491431984.6151130199,1491431984.6174159050, -0.3176, -0.0985, -0.0071,  0.0764, -0.0165,  0.3153
1491431984.6177840233,1491431984.6200900078, -0.3176, -0.0985, -0.0071,  0.0764, -0.0165,  0.3521
1491431984.6204600334,1491431984.6227610111, -0.3176, -0.0985, -0.0071,  0.0828, -0.0172,  0.3521
1491431984.6231279373,1491431984.6255600452, -0.3176, -0.0985, -0.0071,  0.0828, -0.0172,  0.3521
1491431984.6259360313,1491431984.6283619404, -0.3176, -0.0985, -0.0071,  0.0828, -0.0172,  0.3521
1491431984.6287379265,1491431984.6311600208, -0.3176, -0.0985, -0.0071,  0.0879, -0.0002,  0.4103
1491431984.6315391064,1491431984.6339709759, -0.3176, -0.0985, -0.0071,  0.0879, -0.0002,  0.4103
1491431984.6343491077,1491431984.6367759705, -0.3176, -0.1223,  0.0397,  0.0879, -0.0002,  0.4103
1491431984.6371519566,1491431984.6395750046, -0.2985, -0.1223,  0.0397,  0.0879, -0.0002,  0.4103
1491431984.6399540901,1491431984.6423859596, -0.2985, -0.1223,  0.0397,  0.1098,  0.0201,  0.4948
1491431984.6427628994,1491431984.6451969147, -0.2985, -0.1223,  0.0397,  0.1098,  0.0201,  0.4948
1491431984.6455719471,1491431984.6480050087, -0.2985, -0.1223,  0.0397,  0.1098,  0.0201,  0.4948
1491431984.6483809948,1491431984.6508018970, -0.2985, -0.1223,  0.0397,  0.1098,  0.0201,  0.5800
1491431984.6511778831,1491431984.6536018848, -0.2985, -0.1223,  0.0397,  0.1429,  0.0459,  0.5800
1491431984.6539769173,1491431984.6564149857, -0.2985, -0.2551,  0.1281,  0.1429,  0.0459,  0.5800
1491431984.6567900181,1491431984.6592190266, -0.2589, -0.2558,  0.1281,  0.1429,  0.0459,  0.5800
1491431984.6595969200,1491431984.6620199680, -0.2589, -0.2558,  0.1281,  0.1909, -0.0063,  0.6817
1491431984.6623990536,1491431984.6647920609, -0.2589, -0.2558,  0.1281,  0.1909, -0.0063,  0.6817
1491431984.6651620865,1491431984.6674630642, -0.2589, -0.2558,  0.1281,  0.1909, -0.0063,  0.6817
1491431984.6678318977,1491431984.6701390743, -0.2589, -0.2558,  0.1281,  0.1909, -0.0063,  0.6817
1491431984.6705091000,1491431984.6728119850, -0.2589, -0.2558,  0.1281,  0.2844, -0.0920,  0.7901
1491431984.6731810570,1491431984.6755790710, -0.2589, -0.2558,  0.1281,  0.2844, -0.0920,  0.7901
1491431984.6759569645,1491431984.6783919334, -0.4210, -0.1980,  0.1168,  0.2844, -0.0920,  0.7901
1491431984.6787679195,1491431984.6811919212, -0.4210, -0.1980,  0.1168,  0.2844, -0.0920,  0.7901
1491431984.6815710068,1491431984.6839950085, -0.4210, -0.1980,  0.1168,  0.3176, -0.2234,  0.8919
1491431984.6844289303,1491431984.6868610382, -0.4210, -0.1980,  0.1168,  0.3176, -0.2234,  0.8919
1491431984.6872379780,1491431984.6896629333, -0.4210, -0.1980,  0.1168,  0.3176, -0.2234,  0.8919
1491431984.6900379658,1491431984.6924719810, -0.4210, -0.1980,  0.1168,  0.3176, -0.2538,  0.9579
1491431984.6928470135,1491431984.6953439713, -0.4210, -0.1980,  0.1168,  0.2230, -0.2538,  0.9579
1491431984.6957221031,1491431984.6981511116, -0.7625,  0.1874,  0.1475,  0.2230, -0.2538,  0.9579
1491431984.6985259056,1491431984.7009539604, -0.7625,  0.1874,  0.1475,  0.2230, -0.2538,  0.9579
1491431984.7013280392,1491431984.7037570477, -0.7625,  0.1874,  0.1475,  0.1404, -0.0862,  0.9889
1491431984.7041420937,1491431984.7065730095, -0.7625,  0.1874,  0.1475,  0.1404, -0.0862,  0.9889
1491431984.7069480419,1491431984.7093760967, -0.7625,  0.1874,  0.1475,  0.1404, -0.0862,  0.9889
1491431984.7098579407,1491431984.7122828960, -0.7625,  0.1874,  0.1475,  0.1404, -0.0862,  0.9889
1491431984.7126610279,1491431984.7150940895, -0.7625,  0.1874,  0.1475,  0.2176, -0.0244,  0.9087
1491431984.7154619694,1491431984.7177588940, -0.5170, -0.0776,  0.0815,  0.2176, -0.0244,  0.9087
1491431984.7181289196,1491431984.7204320431, -0.5170, -0.0776,  0.0815,  0.2176, -0.0244,  0.9087
1491431984.7208011150,1491431984.7231049538, -0.5170, -0.0776,  0.0815,  0.2176, -0.0713,  0.7986
1491431984.7234740257,1491431984.7258379459, -0.5170, -0.0776,  0.0815,  0.2232, -0.0770,  0.7986
1491431984.7262070179,1491431984.7285070419, -0.5170, -0.0776,  0.0815,  0.2232, -0.0770,  0.7986
1491431984.7288761139,1491431984.7311840057, -0.5170, -0.0776,  0.0815,  0.2232, -0.0770,  0.7986
1491431984.7315540314,1491431984.7338490486, -0.5170, -0.0776,  0.0815,  0.2544, -0.0532,  0.6968
1491431984.7342319489,1491431984.7366600037, -0.2529, -0.2075,  0.0446,  0.2529, -0.0532,  0.6968
1491431984.7370350361,1491431984.7394630909, -0.2529, -0.2075,  0.0446,  0.2529, -0.0532,  0.6968
1491431984.7398390770,1491431984.7422609329, -0.2529, -0.2075,  0.0446,  0.2529, -0.0532,  0.6968
1491431984.7426369190,1491431984.7451040745, -0.2529, -0.2075,  0.0446,  0.1728,  0.0340,  0.6022
1491431984.7454791069,1491431984.7479031086, -0.2529, -0.2075,  0.0446,  0.1728,  0.0340,  0.6022
1491431984.7482790947,1491431984.7507040501, -0.2529, -0.2075,  0.0446,  0.1728,  0.0340,  0.6022
1491431984.7510809898,1491431984.7535140514, -0.2529, -0.2075,  0.0446,  0.1728,  0.0340,  0.3132
1491431984.7538900375,1491431984.7563209534, -0.1613, -0.2360,  0.0435,  0.1099,  0.0525,  0.3164
1491431984.7566978931,1491431984.7591240406, -0.1613, -0.2360,  0.0435,  0.1099,  0.0525,  0.3164
1491431984.7595009804,1491431984.7619209290, -0.1613, -0.2360,  0.0435,  0.1099,  0.0525,  0.3164
1491431984.7622981071,1491431984.7647020817, -0.1613, -0.2360,  0.0435, -0.0698,  0.0209,  0.0706
1491431984.7650699615,1491431984.7673759460, -0.1613, -0.2360,  0.0435, -0.0649,  0.0209,  0.0706
1491431984.7677440643,1491431984.7700419426, -0.1613, -0.2360,  0.0435, -0.0649,  0.0209,  0.0706
1491431984.7704091072,1491431984.7727038860, -0.1613, -0.2360,  0.0435, -0.0649,  0.0209,  0.0706
1491431984.7730729580,1491431984.7754518986, -0.1613, -0.2087,  0.0896, -0.2430,  0.0934, -0.0318
1491431984.7758278847,1491431984.7782530785, -0.2796, -0.2087,  0.0896, -0.2430,  0.0934, -0.0318
1491431984.7786281109,1491431984.7810559273, -0.2796, -0.2087,  0.0896, -0.2430,  0.0934, -0.0318
1491431984.7814319134,1491431984.7838590145, -0.2796, -0.2087,  0.0896, -0.2430,  0.0934, -0.0318
1491431984.7842440605,1491431984.7866730690, -0.2796, -0.2087,  0.0896, -0.2861,  0.1523, -0.0643
1491431984.7870481014,1491431984.7894780636, -0.2796, -0.2087,  0.0896, -0.2861,  0.1523, -0.0643
1491431984.7898550034,1491431984.7922849655, -0.2796, -0.2087,  0.0896, -0.2861,  0.1523, -0.0643
1491431984.7926619053,1491431984.7951340675, -0.2796, -0.0993,  0.0087, -0.2861,  0.1523, -0.0894
1491431984.7955110073,1491431984.7979419231, -0.1382, -0.0979,  0.0087, -0.2994,  0.1510, -0.0894
1491431984.7983179092,1491431984.8007440567, -0.1382, -0.0979,  0.0087, -0.2994,  0.1510, -0.0894
1491431984.8011219501,1491431984.8035559654, -0.1382, -0.0979,  0.0087, -0.2994,  0.1510, -0.0894
1491431984.8039329052,1491431984.8063681126, -0.1382, -0.0979,  0.0087, -0.2887,  0.1439, -0.1470
1491431984.8067450523,1491431984.8091759682, -0.1382, -0.0979,  0.0087, -0.2887,  0.1439, -0.1470
1491431984.8095550537,1491431984.8119859695, -0.1382, -0.0979,  0.0087, -0.2887,  0.1439, -0.1470
1491431984.8123610020,1491431984.8147950172, -0.1382, -0.0354,  0.0182, -0.2887,  0.1439, -0.1470
1491431984.8151640892,1491431984.8174679279, -0.0652, -0.0368,  0.0182, -0.2582,  0.1404, -0.2411
1491431984.8178350925,1491431984.8201439381, -0.0652, -0.0368,  0.0182, -0.2582,  0.1404, -0.2411
1491431984.8205120564,1491431984.8228108883, -0.0652, -0.0368,  0.0182, -0.2582,  0.1404, -0.2411
1491431984.8231799603,1491431984.8254940510, -0.0652, -0.0368,  0.0182, -0.2582,  0.1404, -0.3583
1491431984.8259680271,1491431984.8282680511, -0.0652, -0.0368,  0.0182, -0.2172,  0.1456, -0.3552
1491431984.8286359310,1491431984.8309309483, -0.0652, -0.0368,  0.0182, -0.2172,  0.1456, -0.3552
1491431984.8312990665,1491431984.8336009979, -0.0652, -0.0368,  0.0182, -0.2172,  0.1456, -0.3552
1491431984.8339691162,1491431984.8364028931, -0.0528, -0.0055,  0.0454, -0.2172,  0.1534, -0.4698
1491431984.8367791176,1491431984.8392019272, -0.0528, -0.0055,  0.0454, -0.1732,  0.1505, -0.4698
1491431984.8395810127,1491431984.8420109749, -0.0528, -0.0055,  0.0454, -0.1732,  0.1505, -0.4698
1491431984.8423860073,1491431984.8448240757, -0.0528, -0.0055,  0.0454, -0.1732,  0.1505, -0.4698
1491431984.8452010155,1491431984.8476369381, -0.0528, -0.0055,  0.0454, -0.1207,  0.1534, -0.5768
1491431984.8480141163,1491431984.8504290581, -0.0528, -0.0055,  0.0454, -0.1207,  0.1534, -0.5768
1491431984.8508050442,1491431984.8532280922, -0.0528, -0.0055,  0.0454, -0.1207,  0.1534, -0.5768
1491431984.8536050320,1491431984.8560450077, -0.0620, -0.0259,  0.0246, -0.1207,  0.1534, -0.5768
1491431984.8564200401,1491431984.8588459492, -0.0620, -0.0259,  0.0246, -0.0684,  0.1516, -0.6644
1491431984.8592228889,1491431984.8616499901, -0.0620, -0.0259,  0.0246, -0.0684,  0.1516, -0.6644
1491431984.8620259762,1491431984.8644990921, -0.0620, -0.0259,  0.0246, -0.0684,  0.1516, -0.6644
1491431984.8648750782,1491431984.8673028946, -0.0620, -0.0259,  0.0246, -0.0684,  0.1438, -0.7322
1491431984.8676800728,1491431984.8701078892, -0.0620, -0.0259,  0.0246, -0.0264,  0.1440, -0.7322
1491431984.8704841137,1491431984.8729090691, -0.0620, -0.0259,  0.0246, -0.0264,  0.1440, -0.7322
1491431984.8732850552,1491431984.8756439686, -0.0788, -0.0659,  0.0271, -0.0264,  0.1440, -0.7322
1491431984.8760120869,1491431984.8783159256, -0.0788, -0.0659,  0.0271,  0.0011,  0.1248, -0.7776
1491431984.8786859512,1491431984.8809859753, -0.0788, -0.0659,  0.0271,  0.0011,  0.1248, -0.7776
1491431984.8813569546,1491431984.8836600780, -0.0788, -0.0659,  0.0271,  0.0011,  0.1248, -0.7776
1491431984.8840301037,1491431984.8864641190, -0.0788, -0.0659,  0.0271,  0.0011,  0.1248, -0.7776
1491431984.8868410587,1491431984.8892650604, -0.0788, -0.0659,  0.0271,  0.0191,  0.1013, -0.7985
1491431984.8896410465,1491431984.8920691013, -0.0788, -0.0659,  0.0271,  0.0191,  0.1013, -0.7985
1491431984.8924450874,1491431984.8949160576, -0.1248, -0.0901,  0.0227,  0.0191,  0.1013, -0.7985
1491431984.8952929974,1491431984.8977200985, -0.1248, -0.0901,  0.0227,  0.0191,  0.1013, -0.8008
1491431984.8980970383,1491431984.9005270004, -0.1248, -0.0901,  0.0227,  0.0233,  0.0779, -0.8008
1491431984.9009039402,1491431984.9033229351, -0.1248, -0.0901,  0.0227,  0.0233,  0.0779, -0.8008
1491431984.9037010670,1491431984.9061338902, -0.1248, -0.0901,  0.0227,  0.0233,  0.0779, -0.8008
1491431984.9065101147,1491431984.9089410305, -0.1248, -0.0901,  0.0227,  0.0094,  0.0468, -0.7950
1491431984.9093179703,1491431984.9117429256, -0.1248, -0.0901,  0.0227,  0.0094,  0.0468, -0.7950
1491431984.9121220112,1491431984.9145629406, -0.1682, -0.0923,  0.0191,  0.0094,  0.0468, -0.7950
1491431984.9149401188,1491431984.9173610210, -0.1682, -0.0923,  0.0191,  0.0094,  0.0468, -0.7950
1491431984.9177379608,1491431984.9201629162, -0.1682, -0.0923,  0.0191, -0.0280,  0.0203, -0.7917
1491431984.9205379486,1491431984.9229691029, -0.1682, -0.0923,  0.0191, -0.0280,  0.0203, -0.7917
1491431984.9233450890,1491431984.9257049561, -0.1682, -0.0923,  0.0191, -0.0280,  0.0203, -0.7917
1491431984.9260740280,1491431984.9283740520, -0.1682, -0.0923,  0.0191, -0.0280,  0.0203, -0.7838
1491431984.9287419319,1491431984.9310510159, -0.1682, -0.0923,  0.0191, -0.0543, -0.0017, -0.7873
1491431984.9314200878,1491431984.9337229729, -0.1682, -0.0941,  0.0433, -0.0543, -0.0017, -0.7873
1491431984.9341249466,1491431984.9365570545, -0.2057, -0.0941,  0.0433, -0.0543, -0.0017, -0.7873
1491431984.9369320869,1491431984.9393639565, -0.2057, -0.0941,  0.0433, -0.0543, -0.0252, -0.7787
1491431984.9397389889,1491431984.9421660900, -0.2057, -0.0941,  0.0433, -0.0781, -0.0253, -0.7787
1491431984.9426610470,1491431984.9451370239, -0.2057, -0.0941,  0.0433, -0.0781, -0.0253, -0.7787
1491431984.9455120564,1491431984.9479379654, -0.2057, -0.0941,  0.0433, -0.0781, -0.0253, -0.7787
1491431984.9483149052,1491431984.9507429600, -0.2057, -0.0941,  0.0433, -0.1086, -0.0470, -0.7766
1491431984.9511210918,1491431984.9535489082, -0.2057, -0.0550,  0.0420, -0.1086, -0.0470, -0.7766
1491431984.9539270401,1491431984.9563639164, -0.2515, -0.0598,  0.0420, -0.1086, -0.0470, -0.7766
1491431984.9567410946,1491431984.9591751099, -0.2515, -0.0598,  0.0420, -0.1086, -0.0470, -0.7766
1491431984.9595510960,1491431984.9619719982, -0.2515, -0.0598,  0.0420, -0.1323, -0.0669, -0.7870
1491431984.9623479843,1491431984.9647541046, -0.2515, -0.0598,  0.0420, -0.1323, -0.0669, -0.7870
1491431984.9651219845,1491431984.9674279690, -0.2515, -0.0598,  0.0420, -0.1323, -0.0669, -0.7870
1491431984.9677960873,1491431984.9700949192, -0.2515, -0.0598,  0.0420, -0.1323, -0.0903, -0.8040
1491431984.9704639912,1491431984.9727609158, -0.2515, -0.0598,  0.0498, -0.1416, -0.0870, -0.8040
1491431984.9731299877,1491431984.9754929543, -0.3101, -0.0564,  0.0529, -0.1416, -0.0870, -0.8040
1491431984.9758629799,1491431984.9781630039, -0.3101, -0.0564,  0.0529, -0.1416, -0.0870, -0.8040
1491431984.9785320759,1491431984.9808359146, -0.3101, -0.0564,  0.0529, -0.1457, -0.1115, -0.8193
1491431984.9812049866,1491431984.9835040569, -0.3101, -0.0564,  0.0529, -0.1457, -0.1115, -0.8193
1491431984.9838728905,1491431984.9863369465, -0.3101, -0.0564,  0.0529, -0.1457, -0.1115, -0.8193
1491431984.9867138863,1491431984.9891450405, -0.3101, -0.0564,  0.0529, -0.1457, -0.1115, -0.8193
1491431984.9895219803,1491431984.9919490814, -0.3101, -0.0564,  0.0529, -0.1548, -0.1360, -0.8304
1491431984.9923260212,1491431984.9947600365, -0.4296, -0.0334,  0.0445, -0.1548, -0.1360, -0.8304
1491431984.9951350689,1491431984.9975659847, -0.4296, -0.0334,  0.0445, -0.1548, -0.1360, -0.8304
1491431984.9979419708,1491431985.0003669262, -0.4296, -0.0334,  0.0445, -0.1548, -0.1360, -0.8304
1491431985.0007429123,1491431985.0031759739, -0.4296, -0.0334,  0.0445, -0.1473, -0.1494, -0.8375
1491431985.0035519600,1491431985.0059909821, -0.4296, -0.0334,  0.0445, -0.1473, -0.1494, -0.8375
1491431985.0063660145,1491431985.0087931156, -0.4296, -0.0334,  0.0445, -0.1473, -0.1494, -0.8375
1491431985.0091691017,1491431985.0116019249, -0.4296, -0.0334,  0.0445, -0.1395, -0.1616, -0.8304
1491431985.0119769573,1491431985.0144050121, -0.5841,  0.0863,  0.0033, -0.1331, -0.1616, -0.8304
1491431985.0147728920,1491431985.0170741081, -0.5841,  0.0863,  0.0033, -0.1331, -0.1616, -0.8304
1491431985.0174429417,1491431985.0197460651, -0.5841,  0.0863,  0.0033, -0.1331, -0.1616, -0.8304
1491431985.0201160908,1491431985.0224180222, -0.5841,  0.0863,  0.0033, -0.1165, -0.1544, -0.8068
1491431985.0227899551,1491431985.0251610279, -0.5841,  0.0863,  0.0033, -0.1165, -0.1544, -0.8068
1491431985.0255389214,1491431985.0279610157, -0.5841,  0.0863,  0.0033, -0.1165, -0.1544, -0.8068
1491431985.0283370018,1491431985.0307629108, -0.5841,  0.0863,  0.0033, -0.1165, -0.1544, -0.8068
1491431985.0311410427,1491431985.0335779190, -0.6494,  0.2462,  0.0422, -0.1206, -0.1179, -0.7521
1491431985.0339539051,1491431985.0363879204, -0.6494,  0.2462,  0.0422, -0.1206, -0.1179, -0.7521
1491431985.0367639065,1491431985.0391910076, -0.6494,  0.2462,  0.0422, -0.1206, -0.1179, -0.7521
1491431985.0395660400,1491431985.0419950485, -0.6494,  0.2462,  0.0422, -0.1206, -0.1179, -0.6655
1491431985.0423729420,1491431985.0448150635, -0.6494,  0.2462,  0.0422, -0.1132, -0.0709, -0.6655
1491431985.0451910496,1491431985.0492339134, -0.6494,  0.2462,  0.0422, -0.1132, -0.0709, -0.6655
1491431985.0496199131,1491431985.0519170761, -0.6494,  0.2462,  0.0422, -0.1132, -0.0709, -0.5483
1491431985.0522859097,1491431985.0546400547, -0.5485,  0.4388,  0.0803, -0.1073, -0.0117, -0.5514
1491431985.0550110340,1491431985.0573139191, -0.5485,  0.4388,  0.0803, -0.1073, -0.0117, -0.5514
1491431985.0578100681,1491431985.0601119995, -0.5485,  0.4388,  0.0803, -0.1073, -0.0117, -0.5514
1491431985.0604810715,1491431985.0627770424, -0.5485,  0.4388,  0.0803, -0.1073,  0.0195, -0.4471
1491431985.0631489754,1491431985.0654969215, -0.5485,  0.4388,  0.0803, -0.0860,  0.0233, -0.4471
1491431985.0658650398,1491431985.0681641102, -0.5485,  0.4388,  0.0803, -0.0860,  0.0233, -0.4471
1491431985.0685329437,1491431985.0708410740, -0.5485,  0.4388,  0.0803, -0.0860,  0.0233, -0.4471
1491431985.0712089539,1491431985.0735099316, -0.4029,  0.6046,  0.0353, -0.0776,  0.0375, -0.3459
1491431985.0738759041,1491431985.0762360096, -0.4029,  0.6046,  0.0353, -0.0776,  0.0375, -0.3459
1491431985.0766069889,1491431985.0789101124, -0.4029,  0.6046,  0.0353, -0.0776,  0.0375, -0.3459
1491431985.0792798996,1491431985.0815839767, -0.4029,  0.6046,  0.0353, -0.0776,  0.0375, -0.3459
1491431985.0819520950,1491431985.0843629837, -0.4029,  0.6046,  0.0353, -0.0707,  0.0338, -0.2435
1491431985.0847420692,1491431985.0871739388, -0.4029,  0.6046,  0.0353, -0.0707,  0.0338, -0.2435
1491431985.0875489712,1491431985.0899710655, -0.4029,  0.6046,  0.0353, -0.0707,  0.0338, -0.2435
1491431985.0903449059,1491431985.0927810669, -0.3091,  0.7335,  0.0179, -0.0707,  0.0338, -0.2435
1491431985.0931549072,1491431985.0955929756, -0.3083,  0.7335,  0.0179, -0.0341, -0.0004, -0.1435
1491431985.0959689617,1491431985.0983951092, -0.3083,  0.7335,  0.0179, -0.0341, -0.0004, -0.1435
1491431985.0987730026,1491431985.1012029648, -0.3083,  0.7335,  0.0179, -0.0341, -0.0004, -0.1435
1491431985.1015779972,1491431985.1040029526, -0.3083,  0.7335,  0.0179, -0.0341, -0.0082, -0.0159
1491431985.1044371128,1491431985.1068620682, -0.3083,  0.7335,  0.0179, -0.0063, -0.0104, -0.0159
1491431985.1072399616,1491431985.1096689701, -0.3083,  0.7335,  0.0179, -0.0063, -0.0104, -0.0159
1491431985.1100459099,1491431985.1124699116, -0.3786,  0.6768,  0.0065, -0.0063, -0.0104, -0.0159
1491431985.1128480434,1491431985.1152799129, -0.3791,  0.6768,  0.0065,  0.0004,  0.0105,  0.1068
1491431985.1156499386,1491431985.1179499626, -0.3791,  0.6768,  0.0065,  0.0004,  0.0105,  0.1068
1491431985.1183199883,1491431985.1206231117, -0.3791,  0.6768,  0.0065,  0.0004,  0.0105,  0.1068
1491431985.1209928989,1491431985.1233010292, -0.3791,  0.6768,  0.0065,  0.0004,  0.0105,  0.1068
1491431985.1236710548,1491431985.1260149479, -0.3791,  0.6768,  0.0065,  0.0526,  0.0638,  0.1754
1491431985.1263849735,1491431985.1286890507, -0.3791,  0.6768,  0.0065,  0.0526,  0.0638,  0.1754
1491431985.1290569305,1491431985.1313650608, -0.3791,  0.6768,  0.0768,  0.0526,  0.0638,  0.1754
1491431985.1317338943,1491431985.1340310574, -0.6191, -0.1417,  0.0728,  0.0526,  0.0638,  0.1754
1491431985.1344659328,1491431985.1368949413, -0.6191, -0.1417,  0.0728,  0.1719,  0.0039,  0.2279
1491431985.1372730732,1491431985.1396999359, -0.6191, -0.1417,  0.0728,  0.1719,  0.0039,  0.2279
1491431985.1400759220,1491431985.1425030231, -0.6191, -0.1417,  0.0728,  0.1719,  0.0039,  0.2279
1491431985.1428799629,1491431985.1453239918, -0.6191, -0.1417,  0.0728,  0.2734,  0.3490,  0.2275
1491431985.1456999779,1491431985.1481270790, -0.6191, -0.1417,  0.0728,  0.2746,  0.3490,  0.2275
1491431985.1485040188,1491431985.1509261131, -0.6191, -0.1417,  0.0728,  0.2746,  0.3490,  0.2275
1491431985.1513030529,1491431985.1537289619, -0.1566, -0.9991,  0.3647,  0.2746,  0.3490,  0.2275
1491431985.1541121006,1491431985.1565349102, -0.1566, -0.9991,  0.3647, -0.1964,  0.1820,  0.3981
1491431985.1569099426,1491431985.1593360901, -0.1566, -0.9991,  0.3647, -0.1964,  0.1820,  0.3981
1491431985.1597120762,1491431985.1621339321, -0.1566, -0.9991,  0.3647, -0.1964,  0.1820,  0.3981
1491431985.1625089645,1491431985.1649060249, -0.1566, -0.9991,  0.3647, -0.1964,  0.1820,  0.3981
1491431985.1652750969,1491431985.1675829887, -0.1566, -0.9991,  0.3647,  0.0651, -0.0908,  0.8650
1491431985.1679520607,1491431985.1702499390, -0.1566, -0.9991,  0.3647,  0.0651, -0.0908,  0.8650
1491431985.1706190109,1491431985.1729180813, -0.3836,  0.6852, -0.4876,  0.0651, -0.0908,  0.8650
1491431985.1733999252,1491431985.1758170128, -0.3836,  0.6852, -0.4876,  0.0651, -0.0049,  0.9700
1491431985.1761879921,1491431985.1784880161, -0.3836,  0.6852, -0.4876, -0.1389, -0.0003,  0.9700
1491431985.1788580418,1491431985.1811571121, -0.3836,  0.6852, -0.4876, -0.1389, -0.0003,  0.9700
1491431985.1815259457,1491431985.1838209629, -0.3836,  0.6852, -0.4876, -0.1389, -0.0003,  0.9700
1491431985.1841959953,1491431985.1866209507, -0.3836,  0.6852, -0.4876, -0.0764,  0.0970,  0.6342
1491431985.1869969368,1491431985.1894240379, -0.3836,  0.6852, -0.4876, -0.0779,  0.0970,  0.6342
1491431985.1898000240,1491431985.1922290325, -0.2307, -0.0967,  0.1376, -0.0779,  0.0970,  0.6342
1491431985.1926069260,1491431985.1950380802, -0.2307, -0.0967,  0.1376, -0.0779,  0.0970,  0.6342
1491431985.1954150200,1491431985.1978459358, -0.2307, -0.0967,  0.1376,  0.1844, -0.1545,  0.2503
1491431985.1982219219,1491431985.2006471157, -0.2307, -0.0967,  0.1376,  0.1844, -0.1545,  0.2503
1491431985.2010231018,1491431985.2034509182, -0.2307, -0.0967,  0.1376,  0.1844, -0.1545,  0.2503
1491431985.2038280964,1491431985.2062671185, -0.2307, -0.0967,  0.1376,  0.1844, -0.1545,  0.3519
1491431985.2066431046,1491431985.2090740204, -0.2307, -0.0967,  0.1376,  0.0898, -0.0458,  0.3527
1491431985.2094500065,1491431985.2118840218, -0.1610,  0.1175,  0.0761,  0.0898, -0.0458,  0.3527
1491431985.2122609615,1491431985.2147140503, -0.1610,  0.1175,  0.0761,  0.0898, -0.0458,  0.3527
1491431985.2150828838,1491431985.2173879147, -0.1610,  0.1175,  0.0761,  0.0351, -0.0132,  0.3328
1491431985.2177569866,1491431985.2200651169, -0.1610,  0.1175,  0.0761,  0.0370, -0.0132,  0.3328
1491431985.2204339504,1491431985.2227408886, -0.1610,  0.1175,  0.0761,  0.0370, -0.0132,  0.3328
1491431985.2231090069,1491431985.2254590988, -0.1610,  0.1175,  0.0761,  0.0370, -0.0132,  0.3328
1491431985.2258310318,1491431985.2281301022, -0.1610,  0.1175,  0.0761,  0.0142, -0.0182,  0.2532
1491431985.2284989357,1491431985.2307960987, -0.1610,  0.0237, -0.0551,  0.0142, -0.0182,  0.2532
1491431985.2311649323,1491431985.2334690094, -0.2082,  0.0273, -0.0551,  0.0142, -0.0182,  0.2532
1491431985.2338368893,1491431985.2362539768, -0.2082,  0.0273, -0.0551,  0.0142, -0.0182,  0.2532
1491431985.2366309166,1491431985.2390499115, -0.2082,  0.0273, -0.0551,  0.0269,  0.0049,  0.2189
1491431985.2394270897,1491431985.2418520451, -0.2082,  0.0273, -0.0551,  0.0269,  0.0049,  0.2189
1491431985.2422270775,1491431985.2446548939, -0.2082,  0.0273, -0.0551,  0.0269,  0.0049,  0.2189
1491431985.2450320721,1491431985.2474660873, -0.2082,  0.0273, -0.0551,  0.0269,  0.0049,  0.1955
1491431985.2478449345,1491431985.2502679825, -0.2082,  0.0273,  0.0152,  0.0421, -0.0076,  0.2004
1491431985.2506430149,1491431985.2530651093, -0.2079,  0.0381,  0.0147,  0.0421, -0.0076,  0.2004
1491431985.2534410954,1491431985.2559161186, -0.2079,  0.0381,  0.0147,  0.0421, -0.0076,  0.2004
1491431985.2562930584,1491431985.2587170601, -0.2079,  0.0381,  0.0147,  0.0527,  0.0002,  0.1650
1491431985.2590939999,1491431985.2615160942, -0.2079,  0.0381,  0.0147,  0.0527,  0.0002,  0.1650
1491431985.2618899345,1491431985.2643361092, -0.2079,  0.0381,  0.0147,  0.0527,  0.0002,  0.1650
1491431985.2647109032,1491431985.2671360970, -0.2079,  0.0381,  0.0147,  0.0527,  0.0002,  0.1650
1491431985.2675130367,1491431985.2699410915, -0.2079,  0.0381,  0.0147,  0.0451, -0.0005,  0.1313
1491431985.2703149319,1491431985.2727410793, -0.2159,  0.0374,  0.0357,  0.0451, -0.0005,  0.1313
1491431985.2731161118,1491431985.2754869461, -0.2159,  0.0374,  0.0357,  0.0451, -0.0005,  0.1313
1491431985.2758560181,1491431985.2781610489, -0.2159,  0.0374,  0.0357,  0.0451, -0.0005,  0.1313
1491431985.2785298824,1491431985.2808299065, -0.2159,  0.0374,  0.0357,  0.0473,  0.0270,  0.0907
1491431985.2811980247,1491431985.2834959030, -0.2159,  0.0374,  0.0357,  0.0473,  0.0270,  0.0907
1491431985.2838630676,1491431985.2863490582, -0.2159,  0.0374,  0.0357,  0.0473,  0.0270,  0.0907
1491431985.2867240906,1491431985.2891469002, -0.2159,  0.0374,  0.0357,  0.0473,  0.0270,  0.0746
1491431985.2896349430,1491431985.2920660973, -0.1903,  0.0206, -0.0055,  0.0529,  0.0272,  0.0746
1491431985.2924430370,1491431985.2949120998, -0.1903,  0.0206, -0.0055,  0.0529,  0.0272,  0.0746
1491431985.2952890396,1491431985.2977180481, -0.1903,  0.0206, -0.0055,  0.0529,  0.0272,  0.0746
1491431985.2980940342,1491431985.3005249500, -0.1903,  0.0206, -0.0055,  0.0526,  0.0254,  0.0568
1491431985.3009030819,1491431985.3033270836, -0.1903,  0.0206, -0.0055,  0.0526,  0.0254,  0.0568
1491431985.3037040234,1491431985.3061420918, -0.1903,  0.0206, -0.0055,  0.0526,  0.0254,  0.0568
1491431985.3065180779,1491431985.3089530468, -0.1903,  0.0206, -0.0055,  0.0526,  0.0254,  0.0568
1491431985.3093299866,1491431985.3117530346, -0.1939, -0.0065,  0.0042,  0.0509,  0.0217,  0.0366
1491431985.3121290207,1491431985.3145499229, -0.1939, -0.0065,  0.0042,  0.0509,  0.0217,  0.0366
1491431985.3149209023,1491431985.3172230721, -0.1939, -0.0065,  0.0042,  0.0509,  0.0217,  0.0366
1491431985.3175919056,1491431985.3198950291, -0.1939, -0.0065,  0.0042,  0.0509,  0.0217,  0.0262
1491431985.3202629089,1491431985.3225719929, -0.1939, -0.0065,  0.0042,  0.0522,  0.0191,  0.0262
1491431985.3229420185,1491431985.3253650665, -0.1939, -0.0065,  0.0042,  0.0522,  0.0191,  0.0262
1491431985.3257410526,1491431985.3281641006, -0.1939, -0.0065,  0.0042,  0.0522,  0.0191,  0.0262
1491431985.3285388947,1491431985.3309650421, -0.1955, -0.0153,  0.0236,  0.0406,  0.0182,  0.0263
1491431985.3313400745,1491431985.3337640762, -0.1955, -0.0153,  0.0236,  0.0406,  0.0182,  0.0263
1491431985.3341500759,1491431985.3365859985, -0.1955, -0.0153,  0.0236,  0.0406,  0.0182,  0.0263
1491431985.3369610310,1491431985.3393900394, -0.1955, -0.0153,  0.0236,  0.0406,  0.0182,  0.0263
1491431985.3397650719,1491431985.3421928883, -0.1955, -0.0153,  0.0236,  0.0356,  0.0234,  0.0288
1491431985.3425691128,1491431985.3449699879, -0.1955, -0.0153,  0.0236,  0.0356,  0.0234,  0.0288
1491431985.3453381062,1491431985.3476409912, -0.1955, -0.0153,  0.0236,  0.0356,  0.0234,  0.0288
1491431985.3480091095,1491431985.3503088951, -0.1955, -0.0226,  0.0282,  0.0356,  0.0234,  0.0367
1491431985.3506770134,1491431985.3529829979, -0.1967, -0.0226,  0.0282,  0.0285,  0.0240,  0.0382
1491431985.3533520699,1491431985.3557670116, -0.1967, -0.0226,  0.0282,  0.0285,  0.0240,  0.0382
1491431985.3561420441,1491431985.3585751057, -0.1967, -0.0226,  0.0282,  0.0285,  0.0240,  0.0382
1491431985.3589489460,1491431985.3613760471, -0.1967, -0.0226,  0.0282,  0.0285,  0.0271,  0.0488
1491431985.3617510796,1491431985.3641850948, -0.1967, -0.0226,  0.0282,  0.0250,  0.0271,  0.0488
1491431985.3645539284,1491431985.3668589592, -0.1967, -0.0226,  0.0282,  0.0250,  0.0271,  0.0488
1491431985.3672280312,1491431985.3695280552, -0.1967,  0.0009,  0.0223,  0.0250,  0.0271,  0.0488
1491431985.3698980808,1491431985.3722009659, -0.1966,  0.0005,  0.0223,  0.0249,  0.0300,  0.0529
1491431985.3725690842,1491431985.3749630451, -0.1966,  0.0005,  0.0223,  0.0249,  0.0300,  0.0529
1491431985.3753368855,1491431985.3777620792, -0.1966,  0.0005,  0.0223,  0.0249,  0.0300,  0.0529
1491431985.3781359196,1491431985.3805699348, -0.1966,  0.0005,  0.0223,  0.0249,  0.0300,  0.0529
1491431985.3809471130,1491431985.3833749294, -0.1966,  0.0005,  0.0223,  0.0212,  0.0375,  0.0481
1491431985.3837499619,1491431985.3861849308, -0.1966,  0.0005,  0.0223,  0.0212,  0.0375,  0.0481
1491431985.3865599632,1491431985.3889899254, -0.1966,  0.0005,  0.0301,  0.0212,  0.0375,  0.0481
1491431985.3893671036,1491431985.3917920589, -0.1929,  0.0061,  0.0292,  0.0212,  0.0375,  0.0396
1491431985.3921670914,1491431985.3946049213, -0.1929,  0.0061,  0.0292,  0.0226,  0.0461,  0.0396
1491431985.3949809074,1491431985.3974120617, -0.1929,  0.0061,  0.0292,  0.0226,  0.0461,  0.0396
1491431985.3977880478,1491431985.4002189636, -0.1929,  0.0061,  0.0292,  0.0226,  0.0461,  0.0396
1491431985.4005959034,1491431985.4030280113, -0.1929,  0.0061,  0.0292,  0.0301,  0.0540,  0.0334
1491431985.4034030437,1491431985.4058330059, -0.1929,  0.0061,  0.0292,  0.0301,  0.0540,  0.0334
1491431985.4063160419,1491431985.4087419510, -0.1929,  0.0061,  0.0292,  0.0301,  0.0540,  0.0334
1491431985.4091179371,1491431985.4115459919, -0.1899,  0.0067, -0.0031,  0.0301,  0.0540,  0.0334
1491431985.4119229317,1491431985.4143550396, -0.1899,  0.0067, -0.0031,  0.0522,  0.0553,  0.0290
1491431985.4147241116,1491431985.4170238972, -0.1899,  0.0067, -0.0031,  0.0522,  0.0553,  0.0290
1491431985.4173951149,1491431985.4197039604, -0.1899,  0.0067, -0.0031,  0.0522,  0.0553,  0.0290
1491431985.4200730324,1491431985.4223740101, -0.1899,  0.0067, -0.0031,  0.0522,  0.0553,  0.0290
1491431985.4227440357,1491431985.4251449108, -0.1899,  0.0067, -0.0031,  0.0542,  0.0533,  0.0292
1491431985.4255230427,1491431985.4279439449, -0.1899,  0.0067, -0.0031,  0.0542,  0.0533,  0.0292
1491431985.4283220768,1491431985.4307420254, -0.1855,  0.0002, -0.0159,  0.0542,  0.0533,  0.0292
1491431985.4311189651,1491431985.4335470200, -0.1855,  0.0002, -0.0159,  0.0542,  0.0472,  0.0330
1491431985.4339230061,1491431985.4363579750, -0.1855,  0.0002, -0.0159,  0.0530,  0.0472,  0.0330
