timestamp_before,timestamp_after,accel_x,accel_y,accel_z,gyro_x,gyro_y,gryo_z
1491431739.7037250996,1491431739.7063839436, -0.2146, -0.0076,  0.0211,  0.0081,  0.0057, -0.0110
1491431739.7068390846,1491431739.7091400623, -0.2146, -0.0076,  0.0211,  0.0081,  0.0057, -0.0110
1491431739.7095119953,1491431739.7118139267, -0.2146, -0.0076,  0.0211,  0.0081,  0.0057, -0.0110
1491431739.7121849060,1491431739.7145559788, -0.2146, -0.0076,  0.0211,  0.0081,  0.0057, -0.0110
1491431739.7149269581,1491431739.7172639370, -0.2146, -0.0048,  0.0089,  0.0089,  0.0061, -0.0110
1491431739.7176349163,1491431739.7199289799, -0.1894, -0.0048,  0.0089,  0.0089,  0.0061, -0.0110
1491431739.7202999592,1491431739.7225959301, -0.1894, -0.0048,  0.0089,  0.0089,  0.0061, -0.0110
1491431739.7229659557,1491431739.7254359722, -0.1894, -0.0048,  0.0089,  0.0089,  0.0061, -0.0110
1491431739.7258489132,1491431739.7281489372, -0.1894, -0.0048,  0.0089,  0.0079,  0.0058, -0.0121
1491431739.7285199165,1491431739.7308180332, -0.1894, -0.0048,  0.0089,  0.0079,  0.0058, -0.0121
1491431739.7311880589,1491431739.7334890366, -0.1894, -0.0048,  0.0089,  0.0079,  0.0058, -0.0121
1491431739.7338569164,1491431739.7364120483, -0.1894, -0.0048,  0.0010,  0.0001,  0.0047, -0.0115
1491431739.7367830276,1491431739.7390930653, -0.1884, -0.0057,  0.0075,  0.0077,  0.0047, -0.0115
1491431739.7394640446,1491431739.7417619228, -0.1884, -0.0057,  0.0075,  0.0077,  0.0047, -0.0115
1491431739.7421340942,1491431739.7445299625, -0.1884, -0.0057,  0.0075,  0.0077,  0.0047, -0.0115
1491431739.7449080944,1491431739.7473459244, -0.1884, -0.0057,  0.0075,  0.0063,  0.0046, -0.0126
1491431739.7477231026,1491431739.7501571178, -0.1884, -0.0057,  0.0075,  0.0063,  0.0046, -0.0126
1491431739.7505350113,1491431739.7529621124, -0.1884, -0.0057,  0.0075,  0.0063,  0.0046, -0.0126
1491431739.7533390522,1491431739.7557899952, -0.1884, -0.0057,  0.0075,  0.0063,  0.0046, -0.0126
1491431739.7561678886,1491431739.7586009502, -0.1885, -0.0052,  0.0103,  0.0065,  0.0046, -0.0117
1491431739.7589778900,1491431739.7614150047, -0.1885, -0.0052,  0.0103,  0.0065,  0.0046, -0.0117
1491431739.7617940903,1491431739.7642209530, -0.1885, -0.0052,  0.0103,  0.0065,  0.0046, -0.0117
1491431739.7645978928,1491431739.7670300007, -0.1885, -0.0052,  0.0103,  0.0065,  0.0046, -0.0120
1491431739.7674078941,1491431739.7698459625, -0.1885, -0.0052,  0.0103,  0.0067,  0.0044, -0.0120
1491431739.7702229023,1491431739.7726490498, -0.1885, -0.0052,  0.0103,  0.0067,  0.0044, -0.0120
1491431739.7730259895,1491431739.7754280567, -0.1885, -0.0052,  0.0103,  0.0067,  0.0044, -0.0120
1491431739.7757968903,1491431739.7781069279, -0.1885, -0.0049,  0.0082,  0.0067,  0.0044, -0.0111
1491431739.7784779072,1491431739.7807869911, -0.1885, -0.0049,  0.0082,  0.0067,  0.0044, -0.0111
1491431739.7811560631,1491431739.7834670544, -0.1885, -0.0049,  0.0082,  0.0067,  0.0044, -0.0111
1491431739.7838399410,1491431739.7862639427, -0.1885, -0.0049,  0.0082,  0.0067,  0.0044, -0.0111
1491431739.7866408825,1491431739.7890710831, -0.1885, -0.0049,  0.0082,  0.0074,  0.0047, -0.0118
1491431739.7894499302,1491431739.7919209003, -0.1885, -0.0049,  0.0082,  0.0074,  0.0047, -0.0118
1491431739.7922990322,1491431739.7947340012, -0.1885, -0.0049,  0.0082,  0.0074,  0.0047, -0.0118
1491431739.7951140404,1491431739.7975389957, -0.1892, -0.0052,  0.0095,  0.0074,  0.0047, -0.0122
1491431739.7979159355,1491431739.8003470898, -0.1892, -0.0052,  0.0095,  0.0078,  0.0046, -0.0122
1491431739.8007259369,1491431739.8031558990, -0.1892, -0.0052,  0.0095,  0.0078,  0.0046, -0.0122
1491431739.8035340309,1491431739.8059771061, -0.1892, -0.0052,  0.0095,  0.0078,  0.0046, -0.0122
1491431739.8063549995,1491431739.8088300228, -0.1892, -0.0052,  0.0095,  0.0084,  0.0061, -0.0132
1491431739.8092069626,1491431739.8116230965, -0.1892, -0.0052,  0.0095,  0.0084,  0.0061, -0.0132
1491431739.8120000362,1491431739.8144190311, -0.1892, -0.0052,  0.0095,  0.0084,  0.0061, -0.0132
1491431739.8147959709,1491431739.8171889782, -0.1887, -0.0057,  0.0108,  0.0084,  0.0061, -0.0132
1491431739.8175640106,1491431739.8200509548, -0.1887, -0.0057,  0.0108,  0.0086,  0.0066, -0.0132
1491431739.8205819130,1491431739.8229970932, -0.1887, -0.0057,  0.0108,  0.0086,  0.0066, -0.0132
1491431739.8233740330,1491431739.8257191181, -0.1887, -0.0057,  0.0108,  0.0086,  0.0066, -0.0132
1491431739.8260910511,1491431739.8284640312, -0.1887, -0.0057,  0.0108,  0.0086,  0.0066, -0.0130
1491431739.8288340569,1491431739.8311340809, -0.1887, -0.0057,  0.0108,  0.0080,  0.0063, -0.0130
1491431739.8315050602,1491431739.8338029385, -0.1887, -0.0057,  0.0108,  0.0080,  0.0063, -0.0130
1491431739.8341739178,1491431739.8364760876, -0.1893, -0.0052,  0.0097,  0.0080,  0.0063, -0.0130
1491431739.8368480206,1491431739.8392639160, -0.1893, -0.0052,  0.0097,  0.0080,  0.0066, -0.0125
1491431739.8396370411,1491431739.8419361115, -0.1893, -0.0052,  0.0097,  0.0074,  0.0066, -0.0125
1491431739.8423058987,1491431739.8446478844, -0.1893, -0.0052,  0.0097,  0.0074,  0.0066, -0.0125
1491431739.8450200558,1491431739.8473238945, -0.1893, -0.0052,  0.0097,  0.0074,  0.0066, -0.0125
1491431739.8476951122,1491431739.8500330448, -0.1893, -0.0052,  0.0097,  0.0066,  0.0066, -0.0122
1491431739.8504021168,1491431739.8527059555, -0.1893, -0.0052,  0.0097,  0.0066,  0.0066, -0.0122
1491431739.8530778885,1491431739.8554670811, -0.1893, -0.0052,  0.0075,  0.0066,  0.0066, -0.0122
1491431739.8558459282,1491431739.8582749367, -0.1883, -0.0053,  0.0075,  0.0066,  0.0066, -0.0122
1491431739.8586530685,1491431739.8610808849, -0.1883, -0.0053,  0.0075,  0.0063,  0.0058, -0.0119
1491431739.8614580631,1491431739.8638820648, -0.1883, -0.0053,  0.0075,  0.0063,  0.0058, -0.0119
1491431739.8642690182,1491431739.8666970730, -0.1883, -0.0053,  0.0075,  0.0063,  0.0058, -0.0119
1491431739.8670759201,1491431739.8695030212, -0.1883, -0.0053,  0.0075,  0.0063,  0.0058, -0.0119
1491431739.8698809147,1491431739.8723120689, -0.1883, -0.0053,  0.0075,  0.0059,  0.0056, -0.0114
1491431739.8726899624,1491431739.8751280308, -0.1883, -0.0053,  0.0153,  0.0059,  0.0056, -0.0114
1491431739.8755071163,1491431739.8779320717, -0.1888, -0.0059,  0.0080,  0.0059,  0.0056, -0.0114
1491431739.8783099651,1491431739.8807370663, -0.1888, -0.0059,  0.0080,  0.0057,  0.0053, -0.0112
1491431739.8811149597,1491431739.8835411072, -0.1888, -0.0059,  0.0080,  0.0057,  0.0053, -0.0112
1491431739.8839199543,1491431739.8862431049, -0.1888, -0.0059,  0.0080,  0.0057,  0.0053, -0.0112
1491431739.8866140842,1491431739.8890829086, -0.1888, -0.0059,  0.0080,  0.0057,  0.0053, -0.0112
1491431739.8894529343,1491431739.8917651176, -0.1888, -0.0059,  0.0080,  0.0059,  0.0046, -0.0113
1491431739.8921339512,1491431739.8946490288, -0.1888, -0.0059,  0.0080,  0.0059,  0.0046, -0.0113
1491431739.8950281143,1491431739.8974180222, -0.1890, -0.0053,  0.0084,  0.0059,  0.0046, -0.0113
1491431739.8977930546,1491431739.9003520012, -0.1890, -0.0053,  0.0084,  0.0059,  0.0046, -0.0113
1491431739.9007289410,1491431739.9031250477, -0.1890, -0.0053,  0.0084,  0.0050,  0.0051, -0.0110
1491431739.9043059349,1491431739.9066090584, -0.1890, -0.0053,  0.0084,  0.0050,  0.0051, -0.0110
1491431739.9069819450,1491431739.9092869759, -0.1890, -0.0053,  0.0084,  0.0050,  0.0051, -0.0110
1491431739.9096570015,1491431739.9120481014, -0.1890, -0.0053,  0.0084,  0.0052,  0.0049, -0.0107
1491431739.9124228954,1491431739.9147570133, -0.1890, -0.0053,  0.0084,  0.0052,  0.0049, -0.0107
1491431739.9151320457,1491431739.9175310135, -0.1895, -0.0056,  0.0096,  0.0052,  0.0049, -0.0107
1491431739.9179050922,1491431739.9203159809, -0.1895, -0.0056,  0.0096,  0.0052,  0.0049, -0.0107
1491431739.9206929207,1491431739.9231250286, -0.1895, -0.0056,  0.0096,  0.0048,  0.0045, -0.0107
1491431739.9235050678,1491431739.9258480072, -0.1895, -0.0056,  0.0096,  0.0048,  0.0045, -0.0107
1491431739.9262189865,1491431739.9285190105, -0.1895, -0.0056,  0.0096,  0.0048,  0.0045, -0.0107
1491431739.9288890362,1491431739.9311931133, -0.1895, -0.0056,  0.0096,  0.0048,  0.0045, -0.0107
1491431739.9315619469,1491431739.9338679314, -0.1895, -0.0056,  0.0096,  0.0053,  0.0052, -0.0104
1491431739.9344170094,1491431739.9367239475, -0.1892, -0.0055,  0.0081,  0.0053,  0.0052, -0.0104
1491431739.9370961189,1491431739.9393980503, -0.1892, -0.0055,  0.0081,  0.0053,  0.0052, -0.0104
1491431739.9397659302,1491431739.9420669079, -0.1892, -0.0055,  0.0081,  0.0053,  0.0047, -0.0107
1491431739.9424369335,1491431739.9447460175, -0.1892, -0.0055,  0.0081,  0.0048,  0.0047, -0.0107
1491431739.9451138973,1491431739.9474189281, -0.1892, -0.0055,  0.0081,  0.0048,  0.0047, -0.0107
1491431739.9477889538,1491431739.9500839710, -0.1892, -0.0055,  0.0081,  0.0048,  0.0047, -0.0107
1491431739.9504539967,1491431739.9527649879, -0.1892, -0.0055,  0.0081,  0.0046,  0.0034, -0.0101
1491431739.9531369209,1491431739.9556128979, -0.1886, -0.0055,  0.0067,  0.0046,  0.0034, -0.0101
1491431739.9559841156,1491431739.9582839012, -0.1886, -0.0055,  0.0067,  0.0046,  0.0034, -0.0101
1491431739.9586539268,1491431739.9609611034, -0.1886, -0.0055,  0.0067,  0.0046,  0.0034, -0.0101
1491431739.9613320827,1491431739.9636349678, -0.1886, -0.0055,  0.0067,  0.0041,  0.0027, -0.0103
1491431739.9640069008,1491431739.9664061069, -0.1886, -0.0055,  0.0067,  0.0041,  0.0027, -0.0103
1491431739.9667780399,1491431739.9690790176, -0.1886, -0.0055,  0.0067,  0.0041,  0.0027, -0.0103
1491431739.9694480896,1491431739.9717481136, -0.1886, -0.0055,  0.0067,  0.0041,  0.0027, -0.0103
1491431739.9721190929,1491431739.9744520187, -0.1886, -0.0055,  0.0087,  0.0036,  0.0022, -0.0101
1491431739.9748280048,1491431739.9772570133, -0.1891, -0.0052,  0.0087,  0.0036,  0.0022, -0.0101
1491431739.9776339531,1491431739.9800610542, -0.1891, -0.0052,  0.0087,  0.0036,  0.0022, -0.0101
1491431739.9804399014,1491431739.9828670025, -0.1891, -0.0052,  0.0087,  0.0036,  0.0022, -0.0109
1491431739.9832439423,1491431739.9857189655, -0.1891, -0.0052,  0.0087,  0.0035,  0.0020, -0.0109
1491431739.9860970974,1491431739.9885261059, -0.1891, -0.0052,  0.0087,  0.0035,  0.0020, -0.0109
1491431739.9889049530,1491431739.9913311005, -0.1891, -0.0052,  0.0087,  0.0035,  0.0020, -0.0109
1491431739.9917099476,1491431739.9941489697, -0.1891, -0.0052,  0.0101,  0.0044,  0.0021, -0.0104
1491431739.9945280552,1491431739.9969599247, -0.1896, -0.0051,  0.0101,  0.0044,  0.0021, -0.0104
1491431739.9973359108,1491431739.9997630119, -0.1896, -0.0051,  0.0101,  0.0044,  0.0021, -0.0104
1491431740.0001399517,1491431740.0025629997, -0.1896, -0.0051,  0.0101,  0.0044,  0.0021, -0.0104
1491431740.0029399395,1491431740.0053861141, -0.1896, -0.0051,  0.0101,  0.0038,  0.0024, -0.0111
1491431740.0057621002,1491431740.0081880093, -0.1896, -0.0051,  0.0101,  0.0038,  0.0024, -0.0111
1491431740.0085659027,1491431740.0109920502, -0.1896, -0.0051,  0.0101,  0.0038,  0.0024, -0.0111
1491431740.0113689899,1491431740.0137948990, -0.1896, -0.0051,  0.0101,  0.0038,  0.0024, -0.0114
1491431740.0141758919,1491431740.0164771080, -0.1894, -0.0051,  0.0105,  0.0034,  0.0027, -0.0114
1491431740.0168459415,1491431740.0191450119, -0.1894, -0.0051,  0.0105,  0.0034,  0.0027, -0.0114
1491431740.0195150375,1491431740.0219709873, -0.1894, -0.0051,  0.0105,  0.0034,  0.0027, -0.0114
1491431740.0223441124,1491431740.0247490406, -0.1894, -0.0051,  0.0105,  0.0034,  0.0035, -0.0111
1491431740.0251278877,1491431740.0275568962, -0.1894, -0.0051,  0.0105,  0.0040,  0.0035, -0.0111
1491431740.0279350281,1491431740.0303609371, -0.1894, -0.0051,  0.0105,  0.0040,  0.0035, -0.0111
1491431740.0307381153,1491431740.0331699848, -0.1894, -0.0051,  0.0105,  0.0040,  0.0035, -0.0111
1491431740.0335481167,1491431740.0359818935, -0.1886, -0.0047,  0.0075,  0.0042,  0.0032, -0.0114
1491431740.0363600254,1491431740.0387890339, -0.1886, -0.0047,  0.0075,  0.0042,  0.0032, -0.0114
1491431740.0391669273,1491431740.0415890217, -0.1886, -0.0047,  0.0075,  0.0042,  0.0032, -0.0114
1491431740.0419650078,1491431740.0444040298, -0.1886, -0.0047,  0.0075,  0.0042,  0.0032, -0.0114
1491431740.0447800159,1491431740.0472090244, -0.1886, -0.0047,  0.0075,  0.0048,  0.0030, -0.0118
1491431740.0475859642,1491431740.0500149727, -0.1886, -0.0047,  0.0075,  0.0048,  0.0030, -0.0118
1491431740.0505130291,1491431740.0529360771, -0.1886, -0.0047,  0.0075,  0.0048,  0.0030, -0.0118
1491431740.0533139706,1491431740.0556690693, -0.1892, -0.0052,  0.0086,  0.0050,  0.0028, -0.0128
1491431740.0560390949,1491431740.0583360195, -0.1892, -0.0052,  0.0086,  0.0050,  0.0028, -0.0128
1491431740.0587050915,1491431740.0610079765, -0.1892, -0.0052,  0.0086,  0.0050,  0.0028, -0.0128
1491431740.0613770485,1491431740.0636770725, -0.1892, -0.0052,  0.0086,  0.0050,  0.0028, -0.0128
1491431740.0640490055,1491431740.0665049553, -0.1892, -0.0052,  0.0086,  0.0046,  0.0014, -0.0128
1491431740.0668740273,1491431740.0691750050, -0.1892, -0.0052,  0.0086,  0.0046,  0.0014, -0.0128
1491431740.0695459843,1491431740.0718450546, -0.1892, -0.0052,  0.0086,  0.0046,  0.0014, -0.0128
1491431740.0722150803,1491431740.0746610165, -0.1893, -0.0052,  0.0094,  0.0046,  0.0014, -0.0128
1491431740.0750410557,1491431740.0774679184, -0.1893, -0.0052,  0.0094,  0.0036,  0.0017, -0.0120
1491431740.0778460503,1491431740.0802741051, -0.1893, -0.0052,  0.0094,  0.0036,  0.0017, -0.0120
1491431740.0806529522,1491431740.0830819607, -0.1893, -0.0052,  0.0094,  0.0036,  0.0017, -0.0120
1491431740.0834619999,1491431740.0859510899, -0.1893, -0.0052,  0.0094,  0.0036,  0.0017, -0.0117
1491431740.0863299370,1491431740.0887629986, -0.1893, -0.0052,  0.0094,  0.0039,  0.0018, -0.0117
1491431740.0891408920,1491431740.0915699005, -0.1893, -0.0052,  0.0094,  0.0039,  0.0018, -0.0117
1491431740.0919489861,1491431740.0943870544, -0.1893, -0.0045,  0.0098,  0.0039,  0.0018, -0.0117
1491431740.0947670937,1491431740.0971949100, -0.1893, -0.0045,  0.0098,  0.0043,  0.0025, -0.0123
1491431740.0975720882,1491431740.1000020504, -0.1893, -0.0045,  0.0098,  0.0043,  0.0025, -0.0123
1491431740.1003789902,1491431740.1028089523, -0.1893, -0.0045,  0.0098,  0.0043,  0.0025, -0.0123
1491431740.1031870842,1491431740.1056320667, -0.1893, -0.0045,  0.0098,  0.0043,  0.0025, -0.0123
1491431740.1060099602,1491431740.1084430218, -0.1893, -0.0045,  0.0098,  0.0048,  0.0030, -0.0123
1491431740.1088221073,1491431740.1112511158, -0.1893, -0.0045,  0.0098,  0.0048,  0.0030, -0.0123
1491431740.1116290092,1491431740.1141059399, -0.1892, -0.0051,  0.0094,  0.0048,  0.0030, -0.0123
1491431740.1144781113,1491431740.1167840958, -0.1892, -0.0051,  0.0094,  0.0048,  0.0030, -0.0137
1491431740.1171569824,1491431740.1194610596, -0.1892, -0.0051,  0.0094,  0.0052,  0.0032, -0.0137
1491431740.1198320389,1491431740.1221330166, -0.1892, -0.0051,  0.0094,  0.0052,  0.0032, -0.0137
1491431740.1225030422,1491431740.1248519421, -0.1892, -0.0051,  0.0094,  0.0052,  0.0032, -0.0137
1491431740.1252300739,1491431740.1276600361, -0.1892, -0.0051,  0.0094,  0.0052,  0.0034, -0.0135
1491431740.1280400753,1491431740.1304659843, -0.1892, -0.0051,  0.0094,  0.0049,  0.0034, -0.0135
1491431740.1308450699,1491431740.1332740784, -0.1892, -0.0051,  0.0087,  0.0049,  0.0034, -0.0135
1491431740.1336519718,1491431740.1361260414, -0.1893, -0.0056,  0.0087,  0.0049,  0.0034, -0.0135
1491431740.1365029812,1491431740.1389288902, -0.1893, -0.0056,  0.0087,  0.0052,  0.0040, -0.0134
1491431740.1393079758,1491431740.1417369843, -0.1893, -0.0056,  0.0087,  0.0052,  0.0040, -0.0134
1491431740.1421139240,1491431740.1445569992, -0.1893, -0.0056,  0.0087,  0.0052,  0.0040, -0.0134
1491431740.1449348927,1491431740.1473650932, -0.1893, -0.0056,  0.0087,  0.0052,  0.0040, -0.0134
1491431740.1477448940,1491431740.1501750946, -0.1893, -0.0056,  0.0087,  0.0064,  0.0033, -0.0134
1491431740.1505520344,1491431740.1529819965, -0.1893, -0.0056,  0.0097,  0.0064,  0.0033, -0.0134
1491431740.1533610821,1491431740.1557989120, -0.1895, -0.0047,  0.0097,  0.0064,  0.0033, -0.0134
1491431740.1561770439,1491431740.1586039066, -0.1895, -0.0047,  0.0097,  0.0060,  0.0038, -0.0133
1491431740.1589820385,1491431740.1614110470, -0.1895, -0.0047,  0.0097,  0.0060,  0.0038, -0.0133
1491431740.1617898941,1491431740.1642220020, -0.1895, -0.0047,  0.0097,  0.0060,  0.0038, -0.0133
1491431740.1645910740,1491431740.1668949127, -0.1895, -0.0047,  0.0097,  0.0060,  0.0038, -0.0133
1491431740.1673779488,1491431740.1696829796, -0.1895, -0.0047,  0.0097,  0.0062,  0.0041, -0.0126
1491431740.1700539589,1491431740.1723539829, -0.1895, -0.0047,  0.0097,  0.0062,  0.0041, -0.0126
1491431740.1727230549,1491431740.1751270294, -0.1888, -0.0053,  0.0087,  0.0062,  0.0041, -0.0126
1491431740.1755039692,1491431740.1779339314, -0.1888, -0.0053,  0.0087,  0.0062,  0.0041, -0.0126
1491431740.1783111095,1491431740.1807401180, -0.1888, -0.0053,  0.0087,  0.0058,  0.0045, -0.0128
1491431740.1811189651,1491431740.1835489273, -0.1888, -0.0053,  0.0087,  0.0058,  0.0045, -0.0128
1491431740.1839270592,1491431740.1863698959, -0.1888, -0.0053,  0.0087,  0.0058,  0.0045, -0.0128
1491431740.1867480278,1491431740.1891710758, -0.1888, -0.0053,  0.0087,  0.0058,  0.0042, -0.0128
1491431740.1895499229,1491431740.1919729710, -0.1888, -0.0053,  0.0087,  0.0054,  0.0042, -0.0128
1491431740.1923499107,1491431740.1947948933, -0.1895, -0.0052,  0.0092,  0.0054,  0.0042, -0.0128
1491431740.1951730251,1491431740.1976029873, -0.1895, -0.0052,  0.0092,  0.0054,  0.0042, -0.0128
1491431740.1979808807,1491431740.2004160881, -0.1895, -0.0052,  0.0092,  0.0058,  0.0045, -0.0137
1491431740.2007949352,1491431740.2032239437, -0.1895, -0.0052,  0.0092,  0.0058,  0.0045, -0.0137
1491431740.2036020756,1491431740.2060370445, -0.1895, -0.0052,  0.0092,  0.0058,  0.0045, -0.0137
1491431740.2064139843,1491431740.2088449001, -0.1895, -0.0052,  0.0092,  0.0058,  0.0045, -0.0137
1491431740.2092230320,1491431740.2116560936, -0.1895, -0.0052,  0.0092,  0.0063,  0.0045, -0.0136
1491431740.2120339870,1491431740.2145040035, -0.1890, -0.0054,  0.0089,  0.0063,  0.0045, -0.0136
1491431740.2148749828,1491431740.2171790600, -0.1890, -0.0054,  0.0089,  0.0063,  0.0045, -0.0136
1491431740.2175509930,1491431740.2198529243, -0.1890, -0.0054,  0.0089,  0.0063,  0.0045, -0.0128
1491431740.2202229500,1491431740.2225210667, -0.1890, -0.0054,  0.0089,  0.0060,  0.0051, -0.0128
1491431740.2228929996,1491431740.2252459526, -0.1890, -0.0054,  0.0089,  0.0060,  0.0051, -0.0128
1491431740.2256150246,1491431740.2279140949, -0.1890, -0.0054,  0.0089,  0.0060,  0.0051, -0.0128
1491431740.2282819748,1491431740.2305800915, -0.1890, -0.0054,  0.0089,  0.0061,  0.0047, -0.0128
1491431740.2309501171,1491431740.2332510948, -0.1897, -0.0056,  0.0096,  0.0061,  0.0047, -0.0128
1491431740.2336208820,1491431740.2360539436, -0.1897, -0.0056,  0.0096,  0.0061,  0.0047, -0.0128
1491431740.2364349365,1491431740.2388579845, -0.1897, -0.0056,  0.0096,  0.0061,  0.0047, -0.0128
1491431740.2392339706,1491431740.2416629791, -0.1897, -0.0056,  0.0096,  0.0065,  0.0049, -0.0131
1491431740.2420420647,1491431740.2445220947, -0.1897, -0.0056,  0.0096,  0.0065,  0.0049, -0.0131
1491431740.2449009418,1491431740.2473340034, -0.1897, -0.0056,  0.0096,  0.0065,  0.0049, -0.0131
1491431740.2477109432,1491431740.2501399517, -0.1897, -0.0056,  0.0096,  0.0065,  0.0049, -0.0131
1491431740.2505180836,1491431740.2529439926, -0.1891, -0.0052,  0.0089,  0.0069,  0.0050, -0.0131
1491431740.2533218861,1491431740.2557599545, -0.1891, -0.0052,  0.0089,  0.0069,  0.0050, -0.0131
1491431740.2561380863,1491431740.2585630417, -0.1891, -0.0052,  0.0089,  0.0069,  0.0050, -0.0131
1491431740.2589399815,1491431740.2613639832, -0.1891, -0.0052,  0.0089,  0.0069,  0.0053, -0.0135
1491431740.2617409229,1491431740.2641839981, -0.1891, -0.0052,  0.0089,  0.0070,  0.0053, -0.0135
1491431740.2645618916,1491431740.2669830322, -0.1891, -0.0052,  0.0089,  0.0070,  0.0053, -0.0135
1491431740.2673599720,1491431740.2697899342, -0.1891, -0.0052,  0.0089,  0.0070,  0.0053, -0.0135
1491431740.2701690197,1491431740.2725958824, -0.1883, -0.0057,  0.0091,  0.0068,  0.0050, -0.0129
1491431740.2729730606,1491431740.2753520012, -0.1883, -0.0057,  0.0091,  0.0068,  0.0050, -0.0129
1491431740.2757239342,1491431740.2780261040, -0.1883, -0.0057,  0.0091,  0.0068,  0.0050, -0.0129
1491431740.2783958912,1491431740.2806959152, -0.1883, -0.0057,  0.0091,  0.0068,  0.0050, -0.0129
1491431740.2810668945,1491431740.2833700180, -0.1883, -0.0057,  0.0091,  0.0070,  0.0054, -0.0134
1491431740.2838490009,1491431740.2863171101, -0.1883, -0.0057,  0.0091,  0.0070,  0.0054, -0.0134
1491431740.2866959572,1491431740.2891240120, -0.1883, -0.0057,  0.0091,  0.0070,  0.0054, -0.0134
1491431740.2895030975,1491431740.2919321060, -0.1883, -0.0052,  0.0087,  0.0070,  0.0054, -0.0134
1491431740.2923099995,1491431740.2947530746, -0.1894, -0.0052,  0.0087,  0.0062,  0.0051, -0.0134
1491431740.2951300144,1491431740.2975590229, -0.1894, -0.0052,  0.0087,  0.0062,  0.0051, -0.0134
1491431740.2979381084,1491431740.3003680706, -0.1894, -0.0052,  0.0087,  0.0062,  0.0051, -0.0134
1491431740.3007459641,1491431740.3031721115, -0.1894, -0.0052,  0.0087,  0.0070,  0.0052, -0.0133
1491431740.3035509586,1491431740.3059968948, -0.1894, -0.0052,  0.0087,  0.0070,  0.0052, -0.0133
1491431740.3063759804,1491431740.3088040352, -0.1894, -0.0052,  0.0087,  0.0070,  0.0052, -0.0133
1491431740.3091809750,1491431740.3116099834, -0.1894, -0.0060,  0.0080,  0.0070,  0.0052, -0.0133
1491431740.3119890690,1491431740.3144230843, -0.1886, -0.0060,  0.0080,  0.0074,  0.0050, -0.0131
1491431740.3148019314,1491431740.3172309399, -0.1886, -0.0060,  0.0080,  0.0074,  0.0050, -0.0131
1491431740.3176100254,1491431740.3200449944, -0.1886, -0.0060,  0.0080,  0.0074,  0.0050, -0.0131
1491431740.3204240799,1491431740.3228509426, -0.1886, -0.0060,  0.0080,  0.0074,  0.0049, -0.0127
1491431740.3232269287,1491431740.3255910873, -0.1886, -0.0060,  0.0080,  0.0074,  0.0049, -0.0127
1491431740.3259599209,1491431740.3282630444, -0.1886, -0.0060,  0.0080,  0.0074,  0.0049, -0.0127
1491431740.3286340237,1491431740.3309280872, -0.1886, -0.0060,  0.0089,  0.0074,  0.0049, -0.0127
1491431740.3312990665,1491431740.3335990906, -0.1893, -0.0058,  0.0089,  0.0077,  0.0056, -0.0133
1491431740.3339700699,1491431740.3363780975, -0.1893, -0.0058,  0.0089,  0.0077,  0.0056, -0.0133
1491431740.3367478848,1491431740.3390469551, -0.1893, -0.0058,  0.0089,  0.0077,  0.0056, -0.0133
1491431740.3394160271,1491431740.3417160511, -0.1893, -0.0058,  0.0089,  0.0077,  0.0056, -0.0133
1491431740.3420860767,1491431740.3444941044, -0.1893, -0.0058,  0.0089,  0.0084,  0.0056, -0.0141
1491431740.3448739052,1491431740.3472979069, -0.1893, -0.0058,  0.0089,  0.0084,  0.0056, -0.0141
1491431740.3476760387,1491431740.3501009941, -0.1893, -0.0058,  0.0089,  0.0084,  0.0056, -0.0141
1491431740.3504779339,1491431740.3529050350, -0.1888, -0.0055,  0.0070,  0.0084,  0.0056, -0.0141
1491431740.3532829285,1491431740.3557219505, -0.1888, -0.0055,  0.0070,  0.0070,  0.0056, -0.0134
1491431740.3561000824,1491431740.3585278988, -0.1888, -0.0055,  0.0070,  0.0070,  0.0056, -0.0134
1491431740.3589060307,1491431740.3613319397, -0.1888, -0.0055,  0.0070,  0.0070,  0.0056, -0.0134
1491431740.3617100716,1491431740.3641479015, -0.1888, -0.0055,  0.0070,  0.0070,  0.0058, -0.0127
1491431740.3645288944,1491431740.3669540882, -0.1888, -0.0055,  0.0070,  0.0056,  0.0058, -0.0127
1491431740.3673319817,1491431740.3697540760, -0.1888, -0.0055,  0.0070,  0.0056,  0.0058, -0.0127
1491431740.3701310158,1491431740.3725559711, -0.1895, -0.0068,  0.0101,  0.0056,  0.0058, -0.0127
1491431740.3729350567,1491431740.3753790855, -0.1895, -0.0068,  0.0101,  0.0043,  0.0057, -0.0129
1491431740.3757550716,1491431740.3781790733, -0.1895, -0.0068,  0.0101,  0.0043,  0.0057, -0.0129
1491431740.3785550594,1491431740.3809819221, -0.1895, -0.0068,  0.0101,  0.0043,  0.0057, -0.0129
1491431740.3813591003,1491431740.3837859631, -0.1895, -0.0068,  0.0101,  0.0043,  0.0057, -0.0129
1491431740.3841719627,1491431740.3864710331, -0.1895, -0.0068,  0.0101,  0.0014,  0.0068, -0.0139
1491431740.3868420124,1491431740.3891448975, -0.1895, -0.0068,  0.0101,  0.0014,  0.0068, -0.0139
1491431740.3895161152,1491431740.3918170929, -0.1891, -0.0081,  0.0107,  0.0014,  0.0068, -0.0139
1491431740.3921871185,1491431740.3945479393, -0.1891, -0.0081,  0.0107,  0.0014,  0.0068, -0.0118
1491431740.3949239254,1491431740.3973419666, -0.1891, -0.0081,  0.0107, -0.0024,  0.0071, -0.0118
1491431740.3978199959,1491431740.4002339840, -0.1891, -0.0081,  0.0107, -0.0024,  0.0071, -0.0118
1491431740.4006130695,1491431740.4030289650, -0.1891, -0.0081,  0.0107, -0.0024,  0.0071, -0.0118
1491431740.4034059048,1491431740.4058220387, -0.1891, -0.0081,  0.0107, -0.0059,  0.0085, -0.0103
1491431740.4061999321,1491431740.4086160660, -0.1891, -0.0081,  0.0107, -0.0059,  0.0085, -0.0103
1491431740.4089930058,1491431740.4114100933, -0.1891, -0.0051,  0.0084, -0.0059,  0.0085, -0.0103
1491431740.4117879868,1491431740.4142119884, -0.1891, -0.0051,  0.0084, -0.0059,  0.0085, -0.0103
1491431740.4145898819,1491431740.4170010090, -0.1891, -0.0051,  0.0084, -0.0051,  0.0080, -0.0107
1491431740.4173789024,1491431740.4197900295, -0.1891, -0.0051,  0.0084, -0.0051,  0.0080, -0.0107
1491431740.4201650620,1491431740.4225780964, -0.1891, -0.0051,  0.0084, -0.0051,  0.0080, -0.0107
1491431740.4229550362,1491431740.4253818989, -0.1891, -0.0051,  0.0084, -0.0051,  0.0080, -0.0110
1491431740.4257600307,1491431740.4281709194, -0.1891, -0.0051,  0.0084, -0.0042,  0.0079, -0.0110
1491431740.4285480976,1491431740.4309620857, -0.1894, -0.0049,  0.0072, -0.0042,  0.0079, -0.0110
1491431740.4313390255,1491431740.4337580204, -0.1894, -0.0049,  0.0072, -0.0042,  0.0079, -0.0110
1491431740.4341440201,1491431740.4364440441, -0.1894, -0.0049,  0.0072, -0.0020,  0.0071, -0.0116
1491431740.4368159771,1491431740.4391210079, -0.1894, -0.0049,  0.0072, -0.0020,  0.0071, -0.0116
1491431740.4394938946,1491431740.4417960644, -0.1894, -0.0049,  0.0072, -0.0020,  0.0071, -0.0116
1491431740.4421670437,1491431740.4445970058, -0.1894, -0.0049,  0.0072, -0.0020,  0.0071, -0.0116
1491431740.4449760914,1491431740.4474089146, -0.1894, -0.0049,  0.0072,  0.0002,  0.0054, -0.0126
1491431740.4477870464,1491431740.4502151012, -0.1894, -0.0049,  0.0076,  0.0002,  0.0054, -0.0126
1491431740.4505960941,1491431740.4530220032, -0.1889, -0.0046,  0.0076,  0.0002,  0.0054, -0.0126
1491431740.4533998966,1491431740.4558300972, -0.1889, -0.0046,  0.0076,  0.0002,  0.0054, -0.0126
1491431740.4562079906,1491431740.4586389065, -0.1889, -0.0046,  0.0076,  0.0023,  0.0062, -0.0126
1491431740.4590179920,1491431740.4614419937, -0.1889, -0.0046,  0.0076,  0.0023,  0.0062, -0.0126
1491431740.4618198872,1491431740.4643020630, -0.1889, -0.0046,  0.0076,  0.0023,  0.0062, -0.0126
1491431740.4646821022,1491431740.4671039581, -0.1889, -0.0046,  0.0076,  0.0023,  0.0055, -0.0128
1491431740.4674820900,1491431740.4699089527, -0.1889, -0.0046,  0.0072,  0.0016,  0.0055, -0.0128
1491431740.4702880383,1491431740.4727139473, -0.1884, -0.0047,  0.0072,  0.0016,  0.0055, -0.0128
1491431740.4730930328,1491431740.4755320549, -0.1884, -0.0047,  0.0072,  0.0016,  0.0055, -0.0128
1491431740.4759099483,1491431740.4783420563, -0.1884, -0.0047,  0.0072,  0.0012,  0.0061, -0.0138
1491431740.4787209034,1491431740.4811470509, -0.1884, -0.0047,  0.0072,  0.0012,  0.0061, -0.0138
1491431740.4815270901,1491431740.4839498997, -0.1884, -0.0047,  0.0072,  0.0012,  0.0061, -0.0138
1491431740.4843380451,1491431740.4866430759, -0.1884, -0.0047,  0.0072,  0.0012,  0.0061, -0.0138
1491431740.4870140553,1491431740.4893178940, -0.1884, -0.0047,  0.0058,  0.0002,  0.0068, -0.0143
1491431740.4896879196,1491431740.4919910431, -0.1878, -0.0052,  0.0058,  0.0002,  0.0068, -0.0143
1491431740.4923629761,1491431740.4947481155, -0.1878, -0.0052,  0.0058,  0.0002,  0.0068, -0.0143
1491431740.4951260090,1491431740.4975531101, -0.1878, -0.0052,  0.0058,  0.0002,  0.0068, -0.0134
1491431740.4979290962,1491431740.5003550053, -0.1878, -0.0052,  0.0058, -0.0010,  0.0057, -0.0134
1491431740.5007319450,1491431740.5031580925, -0.1878, -0.0052,  0.0058, -0.0010,  0.0057, -0.0134
1491431740.5035369396,1491431740.5059800148, -0.1878, -0.0052,  0.0058, -0.0010,  0.0057, -0.0134
1491431740.5063560009,1491431740.5087809563, -0.1878, -0.0052,  0.0058, -0.0030,  0.0048, -0.0142
1491431740.5091590881,1491431740.5115849972, -0.1897, -0.0055,  0.0099, -0.0030,  0.0048, -0.0142
1491431740.5119659901,1491431740.5144009590, -0.1897, -0.0055,  0.0099, -0.0030,  0.0048, -0.0142
1491431740.5148890018,1491431740.5173189640, -0.1897, -0.0055,  0.0099, -0.0030,  0.0048, -0.0142
1491431740.5176959038,1491431740.5201239586, -0.1897, -0.0055,  0.0099, -0.0039,  0.0043, -0.0144
1491431740.5205049515,1491431740.5229349136, -0.1897, -0.0055,  0.0099, -0.0039,  0.0043, -0.0144
1491431740.5233120918,1491431740.5257449150, -0.1897, -0.0055,  0.0099, -0.0039,  0.0043, -0.0144
1491431740.5261220932,1491431740.5285511017, -0.1897, -0.0055,  0.0099, -0.0039,  0.0043, -0.0154
1491431740.5289299488,1491431740.5313570499, -0.1888, -0.0039,  0.0070, -0.0025,  0.0044, -0.0154
1491431740.5317349434,1491431740.5341699123, -0.1888, -0.0039,  0.0070, -0.0025,  0.0044, -0.0154
1491431740.5345399380,1491431740.5368409157, -0.1888, -0.0039,  0.0070, -0.0025,  0.0044, -0.0154
1491431740.5372109413,1491431740.5395181179, -0.1888, -0.0039,  0.0070, -0.0019,  0.0047, -0.0166
1491431740.5398869514,1491431740.5421900749, -0.1888, -0.0039,  0.0070, -0.0019,  0.0047, -0.0166
1491431740.5425610542,1491431740.5449509621, -0.1888, -0.0039,  0.0070, -0.0019,  0.0047, -0.0166
1491431740.5453279018,1491431740.5477590561, -0.1888, -0.0039,  0.0070, -0.0019,  0.0047, -0.0166
1491431740.5481369495,1491431740.5505609512, -0.1893, -0.0071,  0.0088, -0.0027,  0.0052, -0.0169
1491431740.5509378910,1491431740.5533668995, -0.1893, -0.0071,  0.0088, -0.0027,  0.0052, -0.0169
1491431740.5537459850,1491431740.5561859608, -0.1893, -0.0071,  0.0088, -0.0027,  0.0052, -0.0169
1491431740.5565629005,1491431740.5589981079, -0.1893, -0.0071,  0.0088, -0.0027,  0.0052, -0.0168
1491431740.5593760014,1491431740.5618019104, -0.1893, -0.0071,  0.0088, -0.0077,  0.0059, -0.0168
1491431740.5621829033,1491431740.5646259785, -0.1893, -0.0071,  0.0088, -0.0077,  0.0059, -0.0168
1491431740.5650041103,1491431740.5674359798, -0.1893, -0.0071,  0.0088, -0.0077,  0.0059, -0.0168
1491431740.5678129196,1491431740.5702400208, -0.1873, -0.0055,  0.0049, -0.0149,  0.0068, -0.0161
1491431740.5706179142,1491431740.5730500221, -0.1873, -0.0055,  0.0049, -0.0149,  0.0068, -0.0161
1491431740.5734279156,1491431740.5758700371, -0.1873, -0.0055,  0.0049, -0.0149,  0.0068, -0.0161
1491431740.5762469769,1491431740.5786778927, -0.1873, -0.0055,  0.0049, -0.0149,  0.0068, -0.0161
1491431740.5790560246,1491431740.5814819336, -0.1873, -0.0055,  0.0049, -0.0196,  0.0068, -0.0162
1491431740.5818591118,1491431740.5842900276, -0.1873, -0.0055,  0.0049, -0.0196,  0.0068, -0.0162
1491431740.5846590996,1491431740.5869619846, -0.1873, -0.0055,  0.0049, -0.0196,  0.0068, -0.0162
1491431740.5873310566,1491431740.5896389484, -0.1890, -0.0055,  0.0016, -0.0196,  0.0068, -0.0162
1491431740.5900099277,1491431740.5923099518, -0.1890, -0.0055,  0.0016, -0.0211,  0.0055, -0.0166
1491431740.5926818848,1491431740.5949881077, -0.1890, -0.0055,  0.0016, -0.0211,  0.0055, -0.0166
1491431740.5953590870,1491431740.5976569653, -0.1890, -0.0055,  0.0016, -0.0211,  0.0055, -0.0166
1491431740.5980288982,1491431740.6003289223, -0.1890, -0.0055,  0.0016, -0.0211,  0.0055, -0.0174
1491431740.6006999016,1491431740.6030011177, -0.1890, -0.0055,  0.0016, -0.0191,  0.0055, -0.0174
1491431740.6033709049,1491431740.6057639122, -0.1890, -0.0055,  0.0016, -0.0191,  0.0055, -0.0174
1491431740.6061439514,1491431740.6085710526, -0.1890, -0.0055,  0.0020, -0.0191,  0.0055, -0.0174
1491431740.6089479923,1491431740.6113729477, -0.1891, -0.0066,  0.0020, -0.0157,  0.0055, -0.0167
1491431740.6117510796,1491431740.6141901016, -0.1891, -0.0066,  0.0020, -0.0157,  0.0055, -0.0167
1491431740.6145679951,1491431740.6169860363, -0.1891, -0.0066,  0.0020, -0.0157,  0.0055, -0.0167
1491431740.6173629761,1491431740.6197929382, -0.1891, -0.0066,  0.0020, -0.0157,  0.0055, -0.0167
1491431740.6201710701,1491431740.6225950718, -0.1891, -0.0066,  0.0020, -0.0128,  0.0056, -0.0156
1491431740.6229720116,1491431740.6254088879, -0.1891, -0.0066,  0.0020, -0.0128,  0.0056, -0.0156
1491431740.6257851124,1491431740.6282150745, -0.1891, -0.0066,  0.0048, -0.0128,  0.0056, -0.0156
1491431740.6285920143,1491431740.6310219765, -0.1900, -0.0078,  0.0048, -0.0128,  0.0056, -0.0137
1491431740.6315100193,1491431740.6339399815, -0.1900, -0.0078,  0.0048, -0.0110,  0.0049, -0.0137
1491431740.6343269348,1491431740.6367540359, -0.1900, -0.0078,  0.0048, -0.0110,  0.0049, -0.0137
1491431740.6371300220,1491431740.6395599842, -0.1900, -0.0078,  0.0048, -0.0110,  0.0049, -0.0137
1491431740.6399390697,1491431740.6423709393, -0.1900, -0.0078,  0.0048, -0.0090,  0.0048, -0.0134
1491431740.6427481174,1491431740.6451330185, -0.1900, -0.0078,  0.0048, -0.0090,  0.0048, -0.0134
1491431740.6455039978,1491431740.6478030682, -0.1900, -0.0078,  0.0079, -0.0090,  0.0048, -0.0134
1491431740.6481730938,1491431740.6504790783, -0.1909, -0.0074,  0.0079, -0.0090,  0.0048, -0.0134
1491431740.6508500576,1491431740.6531479359, -0.1909, -0.0074,  0.0079, -0.0074,  0.0063, -0.0120
1491431740.6535189152,1491431740.6559700966, -0.1909, -0.0074,  0.0079, -0.0074,  0.0063, -0.0120
1491431740.6563489437,1491431740.6587760448, -0.1909, -0.0074,  0.0079, -0.0074,  0.0063, -0.0120
1491431740.6591539383,1491431740.6615800858, -0.1909, -0.0074,  0.0079, -0.0074,  0.0063, -0.0120
1491431740.6619579792,1491431740.6643989086, -0.1909, -0.0074,  0.0079, -0.0070,  0.0072, -0.0114
1491431740.6647760868,1491431740.6672010422, -0.1909, -0.0074,  0.0079, -0.0070,  0.0072, -0.0114
1491431740.6675798893,1491431740.6700100899, -0.1902, -0.0089,  0.0098, -0.0070,  0.0072, -0.0114
1491431740.6703860760,1491431740.6728188992, -0.1902, -0.0089,  0.0098, -0.0070,  0.0104, -0.0094
1491431740.6731989384,1491431740.6756350994, -0.1902, -0.0089,  0.0098, -0.0080,  0.0104, -0.0094
1491431740.6760120392,1491431740.6784379482, -0.1902, -0.0089,  0.0098, -0.0080,  0.0104, -0.0094
1491431740.6788160801,1491431740.6812400818, -0.1902, -0.0089,  0.0098, -0.0080,  0.0104, -0.0094
1491431740.6816198826,1491431740.6840488911, -0.1902, -0.0089,  0.0098, -0.0103,  0.0132, -0.0075
1491431740.6844739914,1491431740.6869039536, -0.1902, -0.0089,  0.0098, -0.0103,  0.0132, -0.0075
1491431740.6872820854,1491431740.6897099018, -0.1908, -0.0080,  0.0101, -0.0103,  0.0132, -0.0075
1491431740.6900889874,1491431740.6925160885, -0.1908, -0.0080,  0.0101, -0.0103,  0.0132, -0.0075
1491431740.6928920746,1491431740.6952989101, -0.1908, -0.0080,  0.0101, -0.0099,  0.0149, -0.0057
1491431740.6956698895,1491431740.6979711056, -0.1908, -0.0080,  0.0101, -0.0099,  0.0149, -0.0057
1491431740.6983420849,1491431740.7006449699, -0.1908, -0.0080,  0.0101, -0.0099,  0.0149, -0.0057
1491431740.7010140419,1491431740.7033140659, -0.1908, -0.0080,  0.0101, -0.0099,  0.0227, -0.0036
1491431740.7036859989,1491431740.7060270309, -0.1908, -0.0080,  0.0101, -0.0071,  0.0172, -0.0036
1491431740.7063970566,1491431740.7086939812, -0.1911, -0.0111,  0.0107, -0.0071,  0.0172, -0.0036
1491431740.7090620995,1491431740.7113640308, -0.1911, -0.0111,  0.0107, -0.0071,  0.0172, -0.0036
1491431740.7117340565,1491431740.7140340805, -0.1911, -0.0111,  0.0107, -0.0071,  0.0187, -0.0009
1491431740.7144680023,1491431740.7168951035, -0.1911, -0.0111,  0.0107, -0.0042,  0.0187, -0.0009
1491431740.7172720432,1491431740.7196960449, -0.1911, -0.0111,  0.0107, -0.0042,  0.0187, -0.0009
1491431740.7200720310,1491431740.7225029469, -0.1911, -0.0111,  0.0107, -0.0042,  0.0187, -0.0009
1491431740.7228798866,1491431740.7253170013, -0.1911, -0.0111,  0.0107, -0.0020,  0.0217,  0.0028
1491431740.7256929874,1491431740.7281229496, -0.1906, -0.0165,  0.0050, -0.0020,  0.0217,  0.0028
1491431740.7285029888,1491431740.7309279442, -0.1906, -0.0165,  0.0050, -0.0020,  0.0217,  0.0028
1491431740.7313060760,1491431740.7337288857, -0.1906, -0.0165,  0.0050, -0.0020,  0.0217,  0.0028
1491431740.7341170311,1491431740.7365489006, -0.1906, -0.0165,  0.0050, -0.0017,  0.0201,  0.0074
1491431740.7369279861,1491431740.7393600941, -0.1906, -0.0165,  0.0050, -0.0017,  0.0201,  0.0074
1491431740.7397389412,1491431740.7421669960, -0.1906, -0.0165,  0.0050, -0.0017,  0.0201,  0.0074
1491431740.7425470352,1491431740.7449419498, -0.1906, -0.0165,  0.0050, -0.0017,  0.0181,  0.0133
1491431740.7453119755,1491431740.7476189137, -0.1906, -0.0062,  0.0066, -0.0021,  0.0181,  0.0133
1491431740.7480959892,1491431740.7503979206, -0.1919, -0.0062,  0.0066, -0.0021,  0.0181,  0.0133
1491431740.7507679462,1491431740.7530701160, -0.1919, -0.0062,  0.0066, -0.0021,  0.0181,  0.0133
1491431740.7534410954,1491431740.7558379173, -0.1919, -0.0062,  0.0066,  0.0030,  0.0208,  0.0154
1491431740.7562170029,1491431740.7586469650, -0.1919, -0.0062,  0.0066,  0.0030,  0.0208,  0.0154
1491431740.7590250969,1491431740.7614541054, -0.1919, -0.0062,  0.0066,  0.0030,  0.0208,  0.0154
1491431740.7618319988,1491431740.7643020153, -0.1919, -0.0062,  0.0066,  0.0030,  0.0208,  0.0154
1491431740.7646811008,1491431740.7671129704, -0.1919, -0.0140,  0.0074,  0.0057,  0.0221,  0.0181
1491431740.7674889565,1491431740.7699151039, -0.1942, -0.0115,  0.0074,  0.0057,  0.0221,  0.0181
1491431740.7702929974,1491431740.7727200985, -0.1942, -0.0115,  0.0074,  0.0057,  0.0221,  0.0181
1491431740.7730960846,1491431740.7755320072, -0.1942, -0.0115,  0.0074,  0.0057,  0.0221,  0.0221
1491431740.7759079933,1491431740.7783360481, -0.1942, -0.0115,  0.0074,  0.0092,  0.0219,  0.0221
1491431740.7787139416,1491431740.7811388969, -0.1942, -0.0115,  0.0074,  0.0092,  0.0219,  0.0221
1491431740.7815148830,1491431740.7839419842, -0.1942, -0.0115,  0.0074,  0.0092,  0.0219,  0.0221
1491431740.7843270302,1491431740.7867600918, -0.1942, -0.0115,  0.0124,  0.0144,  0.0237,  0.0266
1491431740.7871348858,1491431740.7895638943, -0.1958, -0.0108,  0.0124,  0.0144,  0.0237,  0.0266
1491431740.7899401188,1491431740.7923719883, -0.1958, -0.0108,  0.0124,  0.0144,  0.0237,  0.0266
1491431740.7927489281,1491431740.7951390743, -0.1958, -0.0108,  0.0124,  0.0144,  0.0237,  0.0266
1491431740.7955060005,1491431740.7978129387, -0.1958, -0.0108,  0.0124,  0.0181,  0.0251,  0.0317
1491431740.7981820107,1491431740.8004829884, -0.1958, -0.0108,  0.0124,  0.0181,  0.0251,  0.0317
1491431740.8008520603,1491431740.8031530380, -0.1958, -0.0108,  0.0124,  0.0181,  0.0251,  0.0317
1491431740.8035209179,1491431740.8059639931, -0.1958, -0.0108,  0.0124,  0.0181,  0.0251,  0.0390
1491431740.8063399792,1491431740.8087630272, -0.1997, -0.0171,  0.0057,  0.0172,  0.0245,  0.0390
1491431740.8091390133,1491431740.8115649223, -0.1997, -0.0171,  0.0057,  0.0172,  0.0245,  0.0390
1491431740.8119430542,1491431740.8143849373, -0.1997, -0.0171,  0.0057,  0.0172,  0.0245,  0.0390
1491431740.8147609234,1491431740.8171939850, -0.1997, -0.0171,  0.0057,  0.0090,  0.0235,  0.0468
1491431740.8175709248,1491431740.8200020790, -0.1997, -0.0171,  0.0057,  0.0090,  0.0235,  0.0468
1491431740.8203790188,1491431740.8228080273, -0.1997, -0.0171,  0.0057,  0.0090,  0.0235,  0.0468
1491431740.8231880665,1491431740.8256258965, -0.1997, -0.0171,  0.0057,  0.0090,  0.0235,  0.0468
1491431740.8260030746,1491431740.8284358978, -0.2155, -0.0181,  0.0138, -0.0074,  0.0210,  0.0565
1491431740.8288130760,1491431740.8312430382, -0.2155, -0.0181,  0.0138, -0.0074,  0.0210,  0.0565
1491431740.8316199780,1491431740.8340489864, -0.2155, -0.0181,  0.0138, -0.0074,  0.0210,  0.0565
1491431740.8344769478,1491431740.8369100094, -0.2155, -0.0181,  0.0138, -0.0074,  0.0210,  0.0637
1491431740.8372879028,1491431740.8397181034, -0.2155, -0.0181,  0.0138, -0.0133,  0.0211,  0.0637
1491431740.8400959969,1491431740.8425250053, -0.2155, -0.0181,  0.0138, -0.0133,  0.0211,  0.0637
1491431740.8429000378,1491431740.8452830315, -0.2155, -0.0181,  0.0138, -0.0133,  0.0211,  0.0637
1491431740.8456509113,1491431740.8479518890, -0.2498, -0.0366,  0.0070, -0.0137,  0.0181,  0.0719
1491431740.8483209610,1491431740.8506200314, -0.2498, -0.0366,  0.0070, -0.0137,  0.0181,  0.0719
1491431740.8509891033,1491431740.8532888889, -0.2498, -0.0366,  0.0070, -0.0137,  0.0181,  0.0719
1491431740.8536601067,1491431740.8561289310, -0.2498, -0.0366,  0.0070, -0.0137,  0.0181,  0.0719
1491431740.8565049171,1491431740.8589310646, -0.2498, -0.0366,  0.0070, -0.0158,  0.0052,  0.1036
1491431740.8593080044,1491431740.8617389202, -0.2498, -0.0366,  0.0070, -0.0158,  0.0052,  0.1036
1491431740.8621170521,1491431740.8645510674, -0.2498, -0.0366,  0.0070, -0.0158,  0.0052,  0.1036
1491431740.8650441170,1491431740.8674728870, -0.3417, -0.1181, -0.0007, -0.0158,  0.0052,  0.1505
1491431740.8678500652,1491431740.8702769279, -0.3417, -0.1181, -0.0007,  0.0092,  0.0221,  0.1517
1491431740.8706560135,1491431740.8730800152, -0.3417, -0.1181, -0.0007,  0.0092,  0.0221,  0.1517
1491431740.8734600544,1491431740.8759300709, -0.3417, -0.1181, -0.0007,  0.0092,  0.0221,  0.1517
1491431740.8763070107,1491431740.8787319660, -0.3417, -0.1181, -0.0007,  0.0249,  0.0536,  0.1984
1491431740.8791079521,1491431740.8815340996, -0.3417, -0.1181, -0.0007,  0.0236,  0.0536,  0.1984
1491431740.8819100857,1491431740.8843469620, -0.3417, -0.1181, -0.0007,  0.0236,  0.0536,  0.1984
1491431740.8847229481,1491431740.8871550560, -0.2563, -0.0595,  0.0266,  0.0236,  0.0536,  0.1984
1491431740.8875288963,1491431740.8899550438, -0.2563, -0.0595,  0.0266,  0.0352,  0.0367,  0.2215
1491431740.8903310299,1491431740.8927569389, -0.2563, -0.0595,  0.0266,  0.0352,  0.0367,  0.2215
1491431740.8931329250,1491431740.8955020905, -0.2563, -0.0595,  0.0266,  0.0352,  0.0367,  0.2215
1491431740.8958709240,1491431740.8981740475, -0.2563, -0.0595,  0.0266,  0.0352,  0.0367,  0.2215
1491431740.8985419273,1491431740.9008460045, -0.2563, -0.0595,  0.0266,  0.0287,  0.0309,  0.2482
1491431740.9012150764,1491431740.9035170078, -0.2563, -0.0595,  0.0266,  0.0287,  0.0309,  0.2482
1491431740.9038848877,1491431740.9063470364, -0.2563, -0.0553, -0.0001,  0.0287,  0.0309,  0.2482
1491431740.9067239761,1491431740.9091560841, -0.2557, -0.0553, -0.0001,  0.0287,  0.0309,  0.2738
1491431740.9095330238,1491431740.9119639397, -0.2557, -0.0553, -0.0001,  0.0259,  0.0240,  0.2738
1491431740.9123430252,1491431740.9147799015, -0.2557, -0.0553, -0.0001,  0.0259,  0.0240,  0.2738
1491431740.9151570797,1491431740.9175820351, -0.2557, -0.0553, -0.0001,  0.0259,  0.0240,  0.2738
1491431740.9179599285,1491431740.9203898907, -0.2557, -0.0553, -0.0001,  0.0035,  0.0221,  0.3000
1491431740.9207680225,1491431740.9231979847, -0.2557, -0.0553, -0.0001,  0.0035,  0.0221,  0.3000
1491431740.9235761166,1491431740.9260120392, -0.2323,  0.0066,  0.0102,  0.0035,  0.0221,  0.3000
1491431740.9263920784,1491431740.9288160801, -0.2304,  0.0066,  0.0102,  0.0035,  0.0221,  0.3000
1491431740.9291930199,1491431740.9316480160, -0.2304,  0.0066,  0.0102, -0.0110,  0.0213,  0.3070
1491431740.9320259094,1491431740.9344880581, -0.2304,  0.0066,  0.0102, -0.0110,  0.0213,  0.3070
1491431740.9348649979,1491431740.9372560978, -0.2304,  0.0066,  0.0102, -0.0110,  0.0213,  0.3070
1491431740.9376308918,1491431740.9400339127, -0.2304,  0.0066,  0.0102, -0.0110,  0.0213,  0.2946
1491431740.9404120445,1491431740.9428400993, -0.2304,  0.0066,  0.0102, -0.0129,  0.0218,  0.2946
1491431740.9432160854,1491431740.9455680847, -0.2304,  0.0360,  0.0464, -0.0129,  0.0218,  0.2946
1491431740.9459369183,1491431740.9482409954, -0.2549,  0.0360,  0.0464, -0.0129,  0.0218,  0.2946
1491431740.9486100674,1491431740.9509139061, -0.2549,  0.0360,  0.0464, -0.0139,  0.0404,  0.2741
1491431740.9512839317,1491431740.9535899162, -0.2549,  0.0360,  0.0464, -0.0139,  0.0404,  0.2741
1491431740.9539580345,1491431740.9564011097, -0.2549,  0.0360,  0.0464, -0.0139,  0.0404,  0.2741
1491431740.9567770958,1491431740.9592039585, -0.2549,  0.0360,  0.0464, -0.0139,  0.0404,  0.2741
1491431740.9595808983,1491431740.9620070457, -0.2549,  0.0360,  0.0464, -0.0096,  0.0668,  0.2431
1491431740.9623839855,1491431740.9648230076, -0.2549,  0.0360,  0.0229, -0.0096,  0.0668,  0.2431
1491431740.9651999474,1491431740.9676280022, -0.1493, -0.0071,  0.0206, -0.0096,  0.0668,  0.2431
1491431740.9680049419,1491431740.9704320431, -0.1493, -0.0071,  0.0206, -0.0096,  0.0668,  0.1962
1491431740.9708108902,1491431740.9732339382, -0.1493, -0.0071,  0.0206,  0.0035,  0.0813,  0.2010
1491431740.9736111164,1491431740.9760520458, -0.1493, -0.0071,  0.0206,  0.0035,  0.0813,  0.2010
1491431740.9764299393,1491431740.9788589478, -0.1493, -0.0071,  0.0206,  0.0035,  0.0813,  0.2010
1491431740.9793400764,1491431740.9817669392, -0.1493, -0.0071,  0.0206,  0.0284,  0.0815,  0.1480
1491431740.9821450710,1491431740.9845829010, -0.1493, -0.0071,  0.0206,  0.0284,  0.0815,  0.1480
1491431740.9849619865,1491431740.9873828888, -0.0779, -0.0393,  0.0200,  0.0284,  0.0815,  0.1480
1491431740.9877600670,1491431740.9901859760, -0.0779, -0.0393,  0.0200,  0.0284,  0.0815,  0.1480
1491431740.9905619621,1491431740.9929909706, -0.0779, -0.0393,  0.0200,  0.0360,  0.0705,  0.0926
1491431740.9933669567,1491431740.9957230091, -0.0779, -0.0393,  0.0200,  0.0360,  0.0705,  0.0926
1491431740.9960908890,1491431740.9983930588, -0.0779, -0.0393,  0.0200,  0.0360,  0.0705,  0.0926
1491431740.9987609386,1491431741.0010581017, -0.0779, -0.0393,  0.0200,  0.0360,  0.0705,  0.0926
1491431741.0014290810,1491431741.0037291050, -0.0779, -0.0393,  0.0200,  0.0372,  0.0617,  0.0336
1491431741.0041270256,1491431741.0065569878, -0.1118, -0.0819,  0.0157,  0.0372,  0.0617,  0.0336
1491431741.0069339275,1491431741.0093579292, -0.1118, -0.0819,  0.0157,  0.0372,  0.0617,  0.0336
1491431741.0097339153,1491431741.0121591091, -0.1118, -0.0819,  0.0157,  0.0372,  0.0539, -0.0157
1491431741.0125360489,1491431741.0149760246, -0.1118, -0.0819,  0.0157,  0.0271,  0.0535, -0.0157
1491431741.0153520107,1491431741.0177819729, -0.1118, -0.0819,  0.0157,  0.0271,  0.0535, -0.0157
1491431741.0181589127,1491431741.0205869675, -0.1118, -0.0819,  0.0157,  0.0271,  0.0535, -0.0157
1491431741.0209629536,1491431741.0233840942, -0.1118, -0.0819,  0.0157,  0.0030,  0.0439, -0.0339
1491431741.0237588882,1491431741.0261940956, -0.1153, -0.0907,  0.0034,  0.0030,  0.0439, -0.0339
1491431741.0265719891,1491431741.0290000439, -0.1153, -0.0907,  0.0034,  0.0030,  0.0439, -0.0339
1491431741.0293769836,1491431741.0318069458, -0.1153, -0.0907,  0.0034,  0.0030,  0.0439, -0.0339
1491431741.0321850777,1491431741.0346059799, -0.1153, -0.0907,  0.0034, -0.0192,  0.0349, -0.0519
1491431741.0349760056,1491431741.0372800827, -0.1153, -0.0907,  0.0034, -0.0192,  0.0349, -0.0519
1491431741.0376501083,1491431741.0399498940, -0.1153, -0.0907,  0.0034, -0.0192,  0.0349, -0.0519
1491431741.0403211117,1491431741.0426239967, -0.1153, -0.0907,  0.0034, -0.0192,  0.0349, -0.0811
1491431741.0429930687,1491431741.0453629494, -0.1033, -0.0728,  0.0055, -0.0412,  0.0241, -0.0811
1491431741.0457410812,1491431741.0481679440, -0.1033, -0.0728,  0.0055, -0.0412,  0.0241, -0.0811
1491431741.0485439301,1491431741.0509688854, -0.1033, -0.0728,  0.0055, -0.0412,  0.0241, -0.0811
1491431741.0513470173,1491431741.0537769794, -0.1033, -0.0728,  0.0055, -0.0617,  0.0128, -0.1163
1491431741.0541629791,1491431741.0565929413, -0.1033, -0.0728,  0.0055, -0.0617,  0.0128, -0.1163
1491431741.0569710732,1491431741.0594010353, -0.1033, -0.0728,  0.0055, -0.0617,  0.0128, -0.1163
1491431741.0597789288,1491431741.0622088909, -0.1033, -0.0728,  0.0055, -0.0617,  0.0128, -0.1163
1491431741.0625860691,1491431741.0650260448, -0.1213, -0.0652,  0.0125, -0.0767,  0.0026, -0.1497
1491431741.0654048920,1491431741.0678369999, -0.1213, -0.0652,  0.0125, -0.0767,  0.0026, -0.1497
1491431741.0682129860,1491431741.0706439018, -0.1213, -0.0652,  0.0125, -0.0767,  0.0026, -0.1497
1491431741.0710210800,1491431741.0734469891, -0.1213, -0.0652,  0.0125, -0.0767,  0.0026, -0.1810
1491431741.0738229752,1491431741.0762419701, -0.1213, -0.0652,  0.0125, -0.0846, -0.0060, -0.1797
1491431741.0766210556,1491431741.0790541172, -0.1213, -0.0652,  0.0125, -0.0846, -0.0060, -0.1797
1491431741.0794320107,1491431741.0818619728, -0.1213, -0.0652,  0.0125, -0.0846, -0.0060, -0.1797
1491431741.0822389126,1491431741.0846869946, -0.1343, -0.0551,  0.0169, -0.0865, -0.0142, -0.2059
1491431741.0850579739,1491431741.0873589516, -0.1343, -0.0551,  0.0169, -0.0865, -0.0142, -0.2059
1491431741.0877280235,1491431741.0900309086, -0.1343, -0.0551,  0.0169, -0.0865, -0.0142, -0.2059
1491431741.0903999805,1491431741.0927009583, -0.1343, -0.0551,  0.0169, -0.0865, -0.0142, -0.2059
1491431741.0930678844,1491431741.0954420567, -0.1343, -0.0551,  0.0169, -0.0848, -0.0241, -0.2295
1491431741.0959260464,1491431741.0983550549, -0.1343, -0.0551,  0.0169, -0.0848, -0.0241, -0.2295
1491431741.0987329483,1491431741.1011579037, -0.1343, -0.0551,  0.0169, -0.0848, -0.0241, -0.2295
1491431741.1015338898,1491431741.1039609909, -0.1343, -0.0473,  0.0167, -0.0848, -0.0241, -0.2295
1491431741.1043400764,1491431741.1067728996, -0.1476, -0.0476,  0.0167, -0.0788, -0.0327, -0.2503
1491431741.1071500778,1491431741.1095790863, -0.1476, -0.0476,  0.0167, -0.0788, -0.0327, -0.2503
1491431741.1099550724,1491431741.1123828888, -0.1476, -0.0476,  0.0167, -0.0788, -0.0327, -0.2503
1491431741.1127579212,1491431741.1152040958, -0.1476, -0.0476,  0.0167, -0.0788, -0.0420, -0.2693
1491431741.1155788898,1491431741.1180129051, -0.1476, -0.0476,  0.0167, -0.0752, -0.0420, -0.2693
1491431741.1183900833,1491431741.1208140850, -0.1476, -0.0476,  0.0167, -0.0752, -0.0420, -0.2693
1491431741.1211891174,1491431741.1236209869, -0.1476, -0.0398,  0.0230, -0.0752, -0.0420, -0.2693
1491431741.1239960194,1491431741.1264359951, -0.1695, -0.0431,  0.0230, -0.0729, -0.0494, -0.2853
1491431741.1268119812,1491431741.1292419434, -0.1695, -0.0431,  0.0230, -0.0729, -0.0494, -0.2853
1491431741.1296179295,1491431741.1320519447, -0.1695, -0.0431,  0.0230, -0.0729, -0.0494, -0.2853
1491431741.1324279308,1491431741.1348700523, -0.1695, -0.0431,  0.0230, -0.0729, -0.0494, -0.2853
1491431741.1352400780,1491431741.1375410557, -0.1695, -0.0431,  0.0230, -0.0725, -0.0533, -0.2976
1491431741.1379120350,1491431741.1402099133, -0.1695, -0.0431,  0.0230, -0.0725, -0.0533, -0.2976
1491431741.1405808926,1491431741.1428821087, -0.1695, -0.0431,  0.0230, -0.0725, -0.0533, -0.2976
1491431741.1432518959,1491431741.1456429958, -0.1872, -0.0357,  0.0224, -0.0725, -0.0533, -0.3077
1491431741.1460189819,1491431741.1484489441, -0.1872, -0.0357,  0.0224, -0.0721, -0.0568, -0.3077
1491431741.1488249302,1491431741.1512529850, -0.1872, -0.0357,  0.0224, -0.0721, -0.0568, -0.3077
1491431741.1516320705,1491431741.1541059017, -0.1872, -0.0357,  0.0224, -0.0721, -0.0568, -0.3077
1491431741.1544809341,1491431741.1569080353, -0.1872, -0.0357,  0.0224, -0.0710, -0.0611, -0.3158
1491431741.1572849751,1491431741.1597108841, -0.1872, -0.0357,  0.0224, -0.0710, -0.0611, -0.3158
1491431741.1600880623,1491431741.1625170708, -0.1872, -0.0357,  0.0224, -0.0710, -0.0611, -0.3158
1491431741.1628921032,1491431741.1653330326, -0.2023, -0.0262,  0.0207, -0.0710, -0.0611, -0.3158
1491431741.1657080650,1491431741.1681389809, -0.2023, -0.0262,  0.0207, -0.0699, -0.0653, -0.3224
1491431741.1685149670,1491431741.1709458828, -0.2023, -0.0262,  0.0207, -0.0699, -0.0653, -0.3224
1491431741.1713221073,1491431741.1737499237, -0.2023, -0.0262,  0.0207, -0.0699, -0.0653, -0.3224
1491431741.1741359234,1491431741.1765630245, -0.2023, -0.0262,  0.0207, -0.0699, -0.0653, -0.3294
1491431741.1769380569,1491431741.1793720722, -0.2023, -0.0262,  0.0207, -0.0665, -0.0689, -0.3294
1491431741.1797490120,1491431741.1821730137, -0.2023, -0.0262,  0.0207, -0.0665, -0.0689, -0.3294
1491431741.1825489998,1491431741.1849470139, -0.2173, -0.0169,  0.0191, -0.0665, -0.0689, -0.3294
1491431741.1853170395,1491431741.1876220703, -0.2173, -0.0169,  0.0191, -0.0622, -0.0721, -0.3350
1491431741.1879920959,1491431741.1902918816, -0.2173, -0.0169,  0.0191, -0.0622, -0.0721, -0.3350
1491431741.1906609535,1491431741.1929628849, -0.2173, -0.0169,  0.0191, -0.0622, -0.0721, -0.3350
1491431741.1933319569,1491431741.1957669258, -0.2173, -0.0169,  0.0191, -0.0622, -0.0721, -0.3350
1491431741.1961429119,1491431741.1985731125, -0.2173, -0.0169,  0.0191, -0.0573, -0.0753, -0.3404
1491431741.1989479065,1491431741.2013781071, -0.2173, -0.0169,  0.0191, -0.0573, -0.0753, -0.3404
1491431741.2017540932,1491431741.2041890621, -0.2321, -0.0138,  0.0080, -0.0573, -0.0753, -0.3404
1491431741.2045669556,1491431741.2069909573, -0.2321, -0.0138,  0.0080, -0.0573, -0.0753, -0.3404
1491431741.2073669434,1491431741.2097940445, -0.2321, -0.0138,  0.0080, -0.0530, -0.0770, -0.3446
1491431741.2101719379,1491431741.2126009464, -0.2321, -0.0138,  0.0080, -0.0530, -0.0770, -0.3446
1491431741.2130858898,1491431741.2154479027, -0.2321, -0.0138,  0.0080, -0.0530, -0.0770, -0.3446
1491431741.2158169746,1491431741.2181189060, -0.2321, -0.0138,  0.0080, -0.0530, -0.0753, -0.3463
1491431741.2184889317,1491431741.2207899094, -0.2321, -0.0138,  0.0080, -0.0477, -0.0753, -0.3463
1491431741.2211608887,1491431741.2234621048, -0.2481, -0.0133,  0.0053, -0.0477, -0.0753, -0.3463
1491431741.2238318920,1491431741.2262449265, -0.2481, -0.0133,  0.0053, -0.0477, -0.0753, -0.3463
1491431741.2266249657,1491431741.2290539742, -0.2481, -0.0133,  0.0053, -0.0457, -0.0706, -0.3453
1491431741.2294299603,1491431741.2318611145, -0.2481, -0.0133,  0.0053, -0.0457, -0.0706, -0.3453
1491431741.2322371006,1491431741.2346949577, -0.2481, -0.0133,  0.0053, -0.0457, -0.0706, -0.3453
1491431741.2350668907,1491431741.2373650074, -0.2481, -0.0133,  0.0053, -0.0457, -0.0706, -0.3453
1491431741.2377369404,1491431741.2400369644, -0.2481, -0.0133,  0.0053, -0.0443, -0.0617, -0.3406
1491431741.2404060364,1491431741.2427070141, -0.2481, -0.0109,  0.0090, -0.0443, -0.0617, -0.3406
1491431741.2430760860,1491431741.2454569340, -0.2579, -0.0109,  0.0090, -0.0443, -0.0617, -0.3406
1491431741.2458341122,1491431741.2482609749, -0.2579, -0.0109,  0.0090, -0.0443, -0.0617, -0.3328
1491431741.2486379147,1491431741.2510650158, -0.2579, -0.0109,  0.0090, -0.0440, -0.0512, -0.3344
1491431741.2514441013,1491431741.2538719177, -0.2579, -0.0109,  0.0090, -0.0440, -0.0512, -0.3344
1491431741.2542579174,1491431741.2566919327, -0.2579, -0.0109,  0.0090, -0.0440, -0.0512, -0.3344
1491431741.2570679188,1491431741.2594969273, -0.2579, -0.0109,  0.0090, -0.0440, -0.0410, -0.3245
1491431741.2598750591,1491431741.2623069286, -0.2579, -0.0031,  0.0121, -0.0440, -0.0410, -0.3245
1491431741.2627019882,1491431741.2651460171, -0.2484, -0.0009,  0.0121, -0.0440, -0.0410, -0.3245
1491431741.2655229568,1491431741.2679529190, -0.2484, -0.0009,  0.0121, -0.0440, -0.0410, -0.3245
1491431741.2683300972,1491431741.2707529068, -0.2484, -0.0009,  0.0121, -0.0421, -0.0349, -0.3134
1491431741.2711310387,1491431741.2735629082, -0.2484, -0.0009,  0.0121, -0.0421, -0.0349, -0.3134
1491431741.2739388943,1491431741.2763769627, -0.2484, -0.0009,  0.0121, -0.0421, -0.0349, -0.3134
1491431741.2767519951,1491431741.2791800499, -0.2484, -0.0009,  0.0121, -0.0421, -0.0349, -0.2978
1491431741.2795569897,1491431741.2819859982, -0.2484, -0.0009,  0.0048, -0.0371, -0.0334, -0.3012
1491431741.2823619843,1491431741.2847709656, -0.2310,  0.0134,  0.0048, -0.0371, -0.0334, -0.3012
1491431741.2851409912,1491431741.2874410152, -0.2310,  0.0134,  0.0048, -0.0371, -0.0334, -0.3012
1491431741.2878119946,1491431741.2901151180, -0.2310,  0.0134,  0.0048, -0.0371, -0.0355, -0.2859
1491431741.2904860973,1491431741.2927839756, -0.2310,  0.0134,  0.0048, -0.0300, -0.0355, -0.2859
1491431741.2931549549,1491431741.2955839634, -0.2310,  0.0134,  0.0048, -0.0300, -0.0355, -0.2859
1491431741.2959609032,1491431741.2983889580, -0.2310,  0.0134,  0.0048, -0.0300, -0.0355, -0.2859
1491431741.2987649441,1491431741.3011939526, -0.2310,  0.0134,  0.0048, -0.0247, -0.0386, -0.2672
1491431741.3015720844,1491431741.3039979935, -0.2277,  0.0166, -0.0075, -0.0247, -0.0386, -0.2672
1491431741.3044319153,1491431741.3068630695, -0.2277,  0.0166, -0.0075, -0.0247, -0.0386, -0.2672
1491431741.3072390556,1491431741.3096699715, -0.2277,  0.0166, -0.0075, -0.0247, -0.0386, -0.2672
1491431741.3100469112,1491431741.3124721050, -0.2277,  0.0166, -0.0075, -0.0241, -0.0386, -0.2446
1491431741.3128499985,1491431741.3153181076, -0.2277,  0.0166, -0.0075, -0.0241, -0.0386, -0.2446
1491431741.3156940937,1491431741.3181259632, -0.2277,  0.0166, -0.0075, -0.0241, -0.0386, -0.2446
1491431741.3185019493,1491431741.3209290504, -0.2277,  0.0166, -0.0075, -0.0241, -0.0342, -0.2218
1491431741.3213069439,1491431741.3237318993, -0.2218,  0.0282, -0.0140, -0.0312, -0.0342, -0.2218
1491431741.3241169453,1491431741.3265519142, -0.2218,  0.0282, -0.0140, -0.0312, -0.0342, -0.2218
1491431741.3269279003,1491431741.3293581009, -0.2218,  0.0282, -0.0140, -0.0312, -0.0342, -0.2218
1491431741.3298408985,1491431741.3322699070, -0.2218,  0.0282, -0.0140, -0.0416, -0.0255, -0.2019
1491431741.3326458931,1491431741.3350839615, -0.2218,  0.0282, -0.0140, -0.0416, -0.0255, -0.2019
1491431741.3354539871,1491431741.3377540112, -0.2218,  0.0282, -0.0140, -0.0416, -0.0255, -0.2019
1491431741.3381230831,1491431741.3404200077, -0.2218,  0.0282, -0.0140, -0.0416, -0.0255, -0.2019
1491431741.3407890797,1491431741.3430960178, -0.2073,  0.0421, -0.0181, -0.0528, -0.0146, -0.1815
1491431741.3434650898,1491431741.3457729816, -0.2073,  0.0421, -0.0181, -0.0528, -0.0146, -0.1815
1491431741.3461420536,1491431741.3484420776, -0.2073,  0.0421, -0.0181, -0.0528, -0.0146, -0.1815
1491431741.3488099575,1491431741.3511068821, -0.2073,  0.0421, -0.0181, -0.0528, -0.0146, -0.1503
1491431741.3514759541,1491431741.3537778854, -0.2073,  0.0421, -0.0181, -0.0627, -0.0043, -0.1562
1491431741.3541309834,1491431741.3565640450, -0.2073,  0.0421, -0.0181, -0.0627, -0.0043, -0.1562
1491431741.3569409847,1491431741.3593699932, -0.2073,  0.0421, -0.0181, -0.0627, -0.0043, -0.1562
1491431741.3597478867,1491431741.3621749878, -0.1951,  0.0640, -0.0112, -0.0627,  0.0041, -0.1254
1491431741.3625509739,1491431741.3649880886, -0.1951,  0.0640, -0.0112, -0.0690,  0.0041, -0.1254
1491431741.3653650284,1491431741.3677930832, -0.1951,  0.0640, -0.0112, -0.0690,  0.0041, -0.1254
1491431741.3681719303,1491431741.3706018925, -0.1951,  0.0640, -0.0112, -0.0690,  0.0041, -0.1254
1491431741.3709790707,1491431741.3734099865, -0.1951,  0.0640, -0.0112, -0.0686,  0.0091, -0.0905
1491431741.3737881184,1491431741.3762249947, -0.1951,  0.0640, -0.0112, -0.0686,  0.0091, -0.0905
1491431741.3766028881,1491431741.3790340424, -0.1951,  0.0640, -0.0112, -0.0686,  0.0091, -0.0905
1491431741.3794128895,1491431741.3818399906, -0.1810,  0.0823, -0.0014, -0.0686,  0.0091, -0.0905
1491431741.3822190762,1491431741.3846220970, -0.1810,  0.0823, -0.0014, -0.0633,  0.0088, -0.0538
1491431741.3849940300,1491431741.3872959614, -0.1810,  0.0823, -0.0014, -0.0633,  0.0088, -0.0538
1491431741.3876659870,1491431741.3899669647, -0.1810,  0.0823, -0.0014, -0.0633,  0.0088, -0.0538
1491431741.3903388977,1491431741.3926401138, -0.1810,  0.0823, -0.0014, -0.0633,  0.0088, -0.0185
1491431741.3930099010,1491431741.3953969479, -0.1810,  0.0823, -0.0014, -0.0519,  0.0064, -0.0185
1491431741.3957769871,1491431741.3982069492, -0.1810,  0.0823, -0.0014, -0.0519,  0.0064, -0.0185
1491431741.3985838890,1491431741.4010150433, -0.1810,  0.0901,  0.0066, -0.0519,  0.0064, -0.0185
1491431741.4013938904,1491431741.4038200378, -0.1821,  0.0877,  0.0066, -0.0345,  0.0031,  0.0134
1491431741.4042079449,1491431741.4066400528, -0.1821,  0.0877,  0.0066, -0.0345,  0.0031,  0.0134
1491431741.4070169926,1491431741.4094419479, -0.1821,  0.0877,  0.0066, -0.0345,  0.0031,  0.0134
1491431741.4098169804,1491431741.4122490883, -0.1821,  0.0877,  0.0066, -0.0345,  0.0031,  0.0134
1491431741.4126279354,1491431741.4150989056, -0.1821,  0.0877,  0.0066, -0.0168,  0.0034,  0.0417
1491431741.4154760838,1491431741.4179029465, -0.1821,  0.0877,  0.0066, -0.0168,  0.0034,  0.0417
1491431741.4182789326,1491431741.4207079411, -0.1821,  0.0877, -0.0200, -0.0168,  0.0034,  0.0417
1491431741.4210860729,1491431741.4235169888, -0.2535,  0.0282, -0.0200, -0.0168,  0.0034,  0.0688
1491431741.4238939285,1491431741.4263410568, -0.2535,  0.0282, -0.0200, -0.0018,  0.0058,  0.0688
1491431741.4267170429,1491431741.4291510582, -0.2535,  0.0282, -0.0200, -0.0018,  0.0058,  0.0688
1491431741.4295279980,1491431741.4319589138, -0.2535,  0.0282, -0.0200, -0.0018,  0.0058,  0.0688
1491431741.4323370457,1491431741.4347500801, -0.2535,  0.0282, -0.0200,  0.0363, -0.0102,  0.1572
1491431741.4351189137,1491431741.4374198914, -0.2535,  0.0282, -0.0200,  0.0363, -0.0102,  0.1572
1491431741.4377880096,1491431741.4400880337, -0.2535,  0.0282,  0.0269,  0.0363, -0.0102,  0.1572
1491431741.4404559135,1491431741.4427609444, -0.1391, -0.0346,  0.0235,  0.0363, -0.0102,  0.1572
1491431741.4431300163,1491431741.4455890656, -0.1391, -0.0346,  0.0235,  0.0913,  0.0648,  0.1945
1491431741.4460790157,1491431741.4485108852, -0.1391, -0.0346,  0.0235,  0.0913,  0.0648,  0.1945
1491431741.4488890171,1491431741.4513161182, -0.1391, -0.0346,  0.0235,  0.0913,  0.0648,  0.1945
1491431741.4516930580,1491431741.4541299343, -0.1391, -0.0346,  0.0235,  0.0913,  0.0648,  0.1320
1491431741.4545059204,1491431741.4569330215, -0.1391, -0.0346,  0.0235,  0.0891,  0.0796,  0.1315
1491431741.4573080540,1491431741.4597320557, -0.1391, -0.0346,  0.0235,  0.0891,  0.0796,  0.1315
1491431741.4601070881,1491431741.4625360966, -0.2034, -0.2256, -0.0332,  0.0891,  0.0796,  0.1315
1491431741.4629139900,1491431741.4652929306, -0.2034, -0.2256, -0.0332,  0.0644,  0.0346,  0.1491
1491431741.4656620026,1491431741.4679620266, -0.2034, -0.2256, -0.0332,  0.0644,  0.0346,  0.1491
1491431741.4683299065,1491431741.4706289768, -0.2034, -0.2256, -0.0332,  0.0644,  0.0346,  0.1491
1491431741.4709959030,1491431741.4732990265, -0.2034, -0.2256, -0.0332,  0.0644,  0.0346,  0.1491
1491431741.4736680984,1491431741.4761300087, -0.2034, -0.2256, -0.0332,  0.0146,  0.0308,  0.2609
1491431741.4765069485,1491431741.4789330959, -0.2034, -0.2256, -0.0332,  0.0146,  0.0308,  0.2609
1491431741.4793078899,1491431741.4817349911, -0.1575, -0.0666,  0.0553,  0.0146,  0.0308,  0.2609
1491431741.4821109772,1491431741.4845309258, -0.1575, -0.0666,  0.0553,  0.0146,  0.0308,  0.2609
1491431741.4848999977,1491431741.4872009754, -0.1575, -0.0666,  0.0553, -0.0288, -0.0081,  0.3422
1491431741.4875700474,1491431741.4898710251, -0.1575, -0.0666,  0.0553, -0.0288, -0.0081,  0.3422
1491431741.4902389050,1491431741.4925410748, -0.1575, -0.0666,  0.0553, -0.0288, -0.0081,  0.3422
1491431741.4929089546,1491431741.4953339100, -0.1575, -0.0666,  0.0553, -0.0288, -0.0081,  0.3212
1491431741.4957110882,1491431741.4981229305, -0.1575, -0.0666,  0.0553, -0.0245, -0.0358,  0.3212
1491431741.4984979630,1491431741.5009059906, -0.2459,  0.0278,  0.0000, -0.0245, -0.0358,  0.3212
1491431741.5012819767,1491431741.5036909580, -0.2459,  0.0278,  0.0000, -0.0245, -0.0358,  0.3212
1491431741.5040969849,1491431741.5065269470, -0.2459,  0.0278,  0.0000,  0.0008, -0.0312,  0.2799
1491431741.5069029331,1491431741.5093300343, -0.2459,  0.0278,  0.0000,  0.0008, -0.0312,  0.2799
1491431741.5097060204,1491431741.5121378899, -0.2459,  0.0278,  0.0000,  0.0008, -0.0312,  0.2799
1491431741.5125141144,1491431741.5149490833, -0.2459,  0.0278,  0.0000,  0.0008, -0.0312,  0.2799
1491431741.5153241158,1491431741.5177528858, -0.2459,  0.0278,  0.0000,  0.0268, -0.0308,  0.2570
1491431741.5181291103,1491431741.5205609798, -0.2234,  0.0070,  0.0085,  0.0268, -0.0308,  0.2570
1491431741.5209400654,1491431741.5233678818, -0.2234,  0.0070,  0.0085,  0.0268, -0.0308,  0.2570
1491431741.5237460136,1491431741.5260820389, -0.2234,  0.0070,  0.0085,  0.0268, -0.0308,  0.2335
1491431741.5264520645,1491431741.5287559032, -0.2234,  0.0070,  0.0085,  0.0321, -0.0326,  0.2337
1491431741.5291249752,1491431741.5314280987, -0.2234,  0.0070,  0.0085,  0.0321, -0.0326,  0.2337
1491431741.5317990780,1491431741.5341410637, -0.2234,  0.0070,  0.0085,  0.0321, -0.0326,  0.2337
1491431741.5345189571,1491431741.5369050503, -0.2234,  0.0070,  0.0085,  0.0321, -0.0248,  0.2050
1491431741.5372810364,1491431741.5396769047, -0.2234, -0.0086,  0.0304,  0.0209, -0.0299,  0.2050
1491431741.5400509834,1491431741.5424458981, -0.1989, -0.0093,  0.0304,  0.0209, -0.0299,  0.2050
1491431741.5428218842,1491431741.5452380180, -0.1989, -0.0093,  0.0304,  0.0209, -0.0299,  0.2050
1491431741.5456171036,1491431741.5480480194, -0.1989, -0.0093,  0.0304, -0.0036, -0.0268,  0.1826
1491431741.5484259129,1491431741.5508530140, -0.1989, -0.0093,  0.0304, -0.0036, -0.0268,  0.1826
1491431741.5512299538,1491431741.5536561012, -0.1989, -0.0093,  0.0304, -0.0036, -0.0268,  0.1826
1491431741.5540359020,1491431741.5564670563, -0.1989, -0.0093,  0.0304, -0.0036, -0.0268,  0.1826
1491431741.5568439960,1491431741.5592699051, -0.1989, -0.0093,  0.0155, -0.0252, -0.0256,  0.1647
1491431741.5597469807,1491431741.5621719360, -0.1946,  0.0021,  0.0155, -0.0252, -0.0256,  0.1647
1491431741.5625500679,1491431741.5649890900, -0.1946,  0.0021,  0.0155, -0.0252, -0.0256,  0.1647
1491431741.5653660297,1491431741.5677950382, -0.1946,  0.0021,  0.0155, -0.0252, -0.0178,  0.1463
1491431741.5681729317,1491431741.5705990791, -0.1946,  0.0021,  0.0155, -0.0327, -0.0199,  0.1463
1491431741.5709760189,1491431741.5734019279, -0.1946,  0.0021,  0.0155, -0.0327, -0.0199,  0.1463
1491431741.5737800598,1491431741.5761220455, -0.1946,  0.0021,  0.0155, -0.0327, -0.0199,  0.1463
1491431741.5764930248,1491431741.5787990093, -0.1946,  0.0021,  0.0077, -0.0321, -0.0174,  0.1312
1491431741.5791680813,1491431741.5814681053, -0.1982,  0.0141,  0.0060, -0.0321, -0.0174,  0.1312
1491431741.5818369389,1491431741.5841488838, -0.1982,  0.0141,  0.0060, -0.0321, -0.0174,  0.1312
1491431741.5845201015,1491431741.5868198872, -0.1982,  0.0141,  0.0060, -0.0321, -0.0174,  0.1312
1491431741.5871899128,1491431741.5894899368, -0.1982,  0.0141,  0.0060, -0.0367, -0.0290,  0.1218
1491431741.5898609161,1491431741.5921580791, -0.1982,  0.0141,  0.0060, -0.0367, -0.0290,  0.1218
1491431741.5925269127,1491431741.5949239731, -0.1982,  0.0141,  0.0060, -0.0367, -0.0290,  0.1218
1491431741.5953009129,1491431741.5977311134, -0.1982,  0.0141,  0.0060, -0.0367, -0.0290,  0.1218
1491431741.5981090069,1491431741.6005361080, -0.1815,  0.0080, -0.0185,  0.0008, -0.0111,  0.0875
1491431741.6009149551,1491431741.6033420563, -0.1815,  0.0080, -0.0185,  0.0008, -0.0111,  0.0875
1491431741.6037189960,1491431741.6061570644, -0.1815,  0.0080, -0.0185,  0.0008, -0.0111,  0.0875
1491431741.6065330505,1491431741.6089639664, -0.1815,  0.0080, -0.0185,  0.0008, -0.0111,  0.0648
1491431741.6093409061,1491431741.6117670536, -0.1815,  0.0080, -0.0185,  0.0189, -0.0108,  0.0648
1491431741.6121430397,1491431741.6145820618, -0.1815,  0.0080, -0.0185,  0.0189, -0.0108,  0.0648
1491431741.6149590015,1491431741.6173849106, -0.1815,  0.0080, -0.0185,  0.0189, -0.0108,  0.0648
1491431741.6177630424,1491431741.6201939583, -0.1874, -0.0102,  0.0068,  0.0213, -0.0122,  0.0484
1491431741.6205708981,1491431741.6229960918, -0.1874, -0.0102,  0.0068,  0.0213, -0.0122,  0.0484
1491431741.6233730316,1491431741.6257269382, -0.1874, -0.0102,  0.0068,  0.0213, -0.0122,  0.0484
1491431741.6260969639,1491431741.6284000874, -0.1874, -0.0102,  0.0068,  0.0213, -0.0122,  0.0484
1491431741.6287720203,1491431741.6310710907, -0.1874, -0.0102,  0.0068,  0.0156, -0.0114,  0.0372
1491431741.6314411163,1491431741.6337459087, -0.1874, -0.0102,  0.0068,  0.0156, -0.0114,  0.0372
1491431741.6341350079,1491431741.6365621090, -0.1874, -0.0102,  0.0068,  0.0156, -0.0114,  0.0372
1491431741.6369390488,1491431741.6393680573, -0.1867, -0.0092,  0.0125,  0.0156, -0.0114,  0.0372
1491431741.6397449970,1491431741.6421709061, -0.1867, -0.0092,  0.0125,  0.0189, -0.0131,  0.0324
1491431741.6425490379,1491431741.6449849606, -0.1867, -0.0092,  0.0125,  0.0189, -0.0131,  0.0324
1491431741.6453599930,1491431741.6477909088, -0.1867, -0.0092,  0.0125,  0.0189, -0.0131,  0.0324
1491431741.6481659412,1491431741.6505980492, -0.1867, -0.0092,  0.0125,  0.0187, -0.0155,  0.0262
1491431741.6509749889,1491431741.6534059048, -0.1867, -0.0092,  0.0125,  0.0187, -0.0155,  0.0262
1491431741.6537840366,1491431741.6562230587, -0.1867, -0.0092,  0.0125,  0.0187, -0.0155,  0.0262
1491431741.6565999985,1491431741.6590330601, -0.1945, -0.0121,  0.0116,  0.0187, -0.0155,  0.0262
1491431741.6594080925,1491431741.6618330479, -0.1884, -0.0121,  0.0116,  0.0156, -0.0141,  0.0215
1491431741.6622090340,1491431741.6646089554, -0.1884, -0.0121,  0.0116,  0.0156, -0.0141,  0.0215
1491431741.6649789810,1491431741.6672780514, -0.1884, -0.0121,  0.0116,  0.0156, -0.0141,  0.0215
1491431741.6676459312,1491431741.6699490547, -0.1884, -0.0121,  0.0116,  0.0156, -0.0141,  0.0215
1491431741.6703169346,1491431741.6726200581, -0.1884, -0.0121,  0.0116,  0.0123, -0.0142,  0.0204
1491431741.6729879379,1491431741.6753590107, -0.1884, -0.0121,  0.0116,  0.0123, -0.0142,  0.0204
1491431741.6758520603,1491431741.6782829762, -0.1884, -0.0121,  0.0216,  0.0123, -0.0142,  0.0204
1491431741.6786580086,1491431741.6810860634, -0.1897, -0.0148,  0.0216,  0.0123, -0.0139,  0.0190
1491431741.6814610958,1491431741.6838901043, -0.1897, -0.0148,  0.0216,  0.0091, -0.0139,  0.0190
1491431741.6842730045,1491431741.6867029667, -0.1897, -0.0148,  0.0216,  0.0091, -0.0139,  0.0190
1491431741.6870820522,1491431741.6895029545, -0.1897, -0.0148,  0.0216,  0.0091, -0.0139,  0.0190
1491431741.6898810863,1491431741.6923089027, -0.1897, -0.0148,  0.0216,  0.0069, -0.0107,  0.0186
1491431741.6926848888,1491431741.6951220036, -0.1897, -0.0148,  0.0216,  0.0069, -0.0107,  0.0186
1491431741.6954998970,1491431741.6979320049, -0.1897, -0.0148,  0.0269,  0.0069, -0.0107,  0.0186
1491431741.6983079910,1491431741.7007389069, -0.1903, -0.0110,  0.0269,  0.0069, -0.0107,  0.0186
1491431741.7011148930,1491431741.7035388947, -0.1903, -0.0110,  0.0269,  0.0081, -0.0057,  0.0174
1491431741.7039170265,1491431741.7063500881, -0.1903, -0.0110,  0.0269,  0.0081, -0.0057,  0.0174
1491431741.7067270279,1491431741.7091550827, -0.1903, -0.0110,  0.0269,  0.0081, -0.0057,  0.0174
1491431741.7095310688,1491431741.7119560242, -0.1903, -0.0110,  0.0269,  0.0081, -0.0015,  0.0149
1491431741.7123339176,1491431741.7147469521, -0.1903, -0.0110,  0.0269,  0.0114, -0.0015,  0.0149
1491431741.7151188850,1491431741.7174170017, -0.1903, -0.0110,  0.0112,  0.0114, -0.0015,  0.0149
1491431741.7177889347,1491431741.7200880051, -0.1870, -0.0099,  0.0118,  0.0114, -0.0015,  0.0149
1491431741.7204580307,1491431741.7227559090, -0.1870, -0.0099,  0.0118,  0.0132, -0.0016,  0.0143
1491431741.7231259346,1491431741.7254810333, -0.1870, -0.0099,  0.0118,  0.0132, -0.0016,  0.0143
1491431741.7258510590,1491431741.7281539440, -0.1870, -0.0099,  0.0118,  0.0132, -0.0016,  0.0143
1491431741.7285239697,1491431741.7308259010, -0.1870, -0.0099,  0.0118,  0.0132, -0.0016,  0.0143
1491431741.7311971188,1491431741.7336010933, -0.1870, -0.0099,  0.0118,  0.0133, -0.0038,  0.0129
1491431741.7339711189,1491431741.7364780903, -0.1870, -0.0099,  0.0118,  0.0133, -0.0038,  0.0129
1491431741.7368528843,1491431741.7392489910, -0.1887, -0.0080,  0.0160,  0.0133, -0.0038,  0.0129
1491431741.7396249771,1491431741.7420198917, -0.1887, -0.0080,  0.0160,  0.0133, -0.0038,  0.0129
1491431741.7424530983,1491431741.7448871136, -0.1887, -0.0080,  0.0160,  0.0142, -0.0049,  0.0099
1491431741.7452640533,1491431741.7476549149, -0.1887, -0.0080,  0.0160,  0.0142, -0.0049,  0.0099
1491431741.7480299473,1491431741.7504260540, -0.1887, -0.0080,  0.0160,  0.0142, -0.0049,  0.0099
1491431741.7508020401,1491431741.7532839775, -0.1887, -0.0080,  0.0160,  0.0142, -0.0044,  0.0078
1491431741.7536621094,1491431741.7561058998, -0.1887, -0.0080,  0.0160,  0.0158, -0.0044,  0.0078
1491431741.7564830780,1491431741.7588748932, -0.1895, -0.0093,  0.0173,  0.0158, -0.0044,  0.0078
1491431741.7592520714,1491431741.7616438866, -0.1895, -0.0093,  0.0173,  0.0158, -0.0044,  0.0078
1491431741.7620220184,1491431741.7645170689, -0.1895, -0.0093,  0.0173,  0.0167, -0.0037,  0.0068
1491431741.7648940086,1491431741.7672851086, -0.1895, -0.0093,  0.0173,  0.0167, -0.0037,  0.0068
1491431741.7676610947,1491431741.7700560093, -0.1895, -0.0093,  0.0173,  0.0167, -0.0037,  0.0068
1491431741.7704319954,1491431741.7728250027, -0.1895, -0.0093,  0.0173,  0.0167, -0.0037,  0.0068
1491431741.7732379436,1491431741.7757019997, -0.1895, -0.0093,  0.0173,  0.0167, -0.0014,  0.0061
1491431741.7760779858,1491431741.7784891129, -0.1892, -0.0084,  0.0214,  0.0167, -0.0014,  0.0061
1491431741.7788660526,1491431741.7812769413, -0.1892, -0.0084,  0.0214,  0.0167, -0.0014,  0.0061
1491431741.7816538811,1491431741.7841041088, -0.1892, -0.0084,  0.0214,  0.0167,  0.0012,  0.0045
1491431741.7844829559,1491431741.7869009972, -0.1892, -0.0084,  0.0214,  0.0167,  0.0012,  0.0045
1491431741.7872769833,1491431741.7896931171, -0.1892, -0.0084,  0.0214,  0.0167,  0.0012,  0.0045
1491431741.7900691032,1491431741.7924849987, -0.1892, -0.0084,  0.0214,  0.0167,  0.0012,  0.0045
1491431741.7929749489,1491431741.7953989506, -0.1892, -0.0084,  0.0214,  0.0186,  0.0027,  0.0026
1491431741.7957758904,1491431741.7981929779, -0.1892, -0.0080,  0.0183,  0.0186,  0.0027,  0.0026
1491431741.7985699177,1491431741.8009779453, -0.1892, -0.0080,  0.0183,  0.0186,  0.0027,  0.0026
1491431741.8013548851,1491431741.8037641048, -0.1892, -0.0080,  0.0183,  0.0186,  0.0027,  0.0026
1491431741.8041489124,1491431741.8065650463, -0.1892, -0.0080,  0.0183,  0.0197,  0.0034,  0.0021
1491431741.8069410324,1491431741.8093559742, -0.1892, -0.0080,  0.0183,  0.0197,  0.0034,  0.0021
1491431741.8097329140,1491431741.8121409416, -0.1892, -0.0080,  0.0183,  0.0197,  0.0034,  0.0021
1491431741.8125159740,1491431741.8149340153, -0.1892, -0.0080,  0.0183,  0.0197,  0.0050,  0.0023
1491431741.8153090477,1491431741.8177230358, -0.1897, -0.0063,  0.0213,  0.0182,  0.0050,  0.0023
1491431741.8180980682,1491431741.8205130100, -0.1897, -0.0063,  0.0213,  0.0182,  0.0050,  0.0023
1491431741.8208880424,1491431741.8233029842, -0.1897, -0.0063,  0.0213,  0.0182,  0.0050,  0.0023
1491431741.8236811161,1491431741.8261420727, -0.1897, -0.0063,  0.0213,  0.0201,  0.0071,  0.0012
1491431741.8265221119,1491431741.8289570808, -0.1897, -0.0063,  0.0213,  0.0201,  0.0071,  0.0012
1491431741.8293340206,1491431741.8317620754, -0.1897, -0.0063,  0.0213,  0.0201,  0.0071,  0.0012
1491431741.8321409225,1491431741.8345870972, -0.1897, -0.0063,  0.0213,  0.0201,  0.0071,  0.0012
1491431741.8349649906,1491431741.8373899460, -0.1897, -0.0073,  0.0127,  0.0225,  0.0100, -0.0006
1491431741.8377668858,1491431741.8401980400, -0.1875, -0.0073,  0.0127,  0.0225,  0.0100, -0.0006
1491431741.8405740261,1491431741.8430049419, -0.1875, -0.0073,  0.0127,  0.0225,  0.0100, -0.0006
1491431741.8433840275,1491431741.8457410336, -0.1875, -0.0073,  0.0127,  0.0225,  0.0091, -0.0015
1491431741.8461139202,1491431741.8484079838, -0.1875, -0.0073,  0.0127,  0.0226,  0.0091, -0.0015
1491431741.8487789631,1491431741.8510808945, -0.1875, -0.0073,  0.0127,  0.0226,  0.0091, -0.0015
1491431741.8514521122,1491431741.8537499905, -0.1875, -0.0073,  0.0127,  0.0226,  0.0091, -0.0015
1491431741.8541390896,1491431741.8565568924, -0.1875, -0.0073,  0.0142,  0.0222,  0.0066, -0.0015
1491431741.8569369316,1491431741.8593609333, -0.1878, -0.0079,  0.0142,  0.0222,  0.0066, -0.0015
1491431741.8597409725,1491431741.8621668816, -0.1878, -0.0079,  0.0142,  0.0222,  0.0066, -0.0015
1491431741.8625440598,1491431741.8649489880, -0.1878, -0.0079,  0.0142,  0.0222,  0.0066, -0.0015
1491431741.8653209209,1491431741.8676190376, -0.1878, -0.0079,  0.0142,  0.0204,  0.0052, -0.0013
1491431741.8679900169,1491431741.8702900410, -0.1878, -0.0079,  0.0142,  0.0204,  0.0052, -0.0013
1491431741.8706610203,1491431741.8729639053, -0.1878, -0.0079,  0.0142,  0.0204,  0.0052, -0.0013
1491431741.8733329773,1491431741.8757629395, -0.1878, -0.0079,  0.0142,  0.0204,  0.0052, -0.0013
1491431741.8761420250,1491431741.8785688877, -0.1880, -0.0061,  0.0163,  0.0191,  0.0050, -0.0006
1491431741.8789460659,1491431741.8813769817, -0.1880, -0.0061,  0.0163,  0.0191,  0.0050, -0.0006
1491431741.8817539215,1491431741.8841900826, -0.1880, -0.0061,  0.0163,  0.0191,  0.0050, -0.0006
1491431741.8845670223,1491431741.8869938850, -0.1880, -0.0061,  0.0163,  0.0191,  0.0050, -0.0019
1491431741.8873720169,1491431741.8898038864, -0.1880, -0.0061,  0.0163,  0.0171,  0.0050, -0.0019
1491431741.8901829720,1491431741.8926150799, -0.1880, -0.0061,  0.0163,  0.0171,  0.0050, -0.0019
1491431741.8929920197,1491431741.8954279423, -0.1880, -0.0061,  0.0163,  0.0171,  0.0050, -0.0019
1491431741.8958070278,1491431741.8982350826, -0.1861, -0.0070,  0.0103,  0.0123,  0.0046, -0.0006
1491431741.8986139297,1491431741.9010429382, -0.1861, -0.0070,  0.0103,  0.0123,  0.0046, -0.0006
1491431741.9014189243,1491431741.9038469791, -0.1861, -0.0070,  0.0103,  0.0123,  0.0046, -0.0006
1491431741.9042329788,1491431741.9066629410, -0.1861, -0.0070,  0.0103,  0.0123,  0.0046, -0.0006
1491431741.9070410728,1491431741.9094719887, -0.1861, -0.0070,  0.0103,  0.0097,  0.0023, -0.0003
1491431741.9099550247,1491431741.9123790264, -0.1861, -0.0070,  0.0103,  0.0097,  0.0023, -0.0003
1491431741.9127559662,1491431741.9151480198, -0.1861, -0.0070,  0.0103,  0.0097,  0.0023, -0.0003
1491431741.9155199528,1491431741.9178190231, -0.1880, -0.0052,  0.0120,  0.0097, -0.0001, -0.0002
1491431741.9181909561,1491431741.9204900265, -0.1880, -0.0052,  0.0120,  0.0119, -0.0001, -0.0002
1491431741.9208600521,1491431741.9231688976, -0.1880, -0.0052,  0.0120,  0.0119, -0.0001, -0.0002
1491431741.9235379696,1491431741.9259829521, -0.1880, -0.0052,  0.0120,  0.0119, -0.0001, -0.0002
1491431741.9263589382,1491431741.9287829399, -0.1880, -0.0052,  0.0120,  0.0145, -0.0022,  0.0000
1491431741.9291610718,1491431741.9315860271, -0.1880, -0.0052,  0.0120,  0.0145, -0.0022,  0.0000
1491431741.9319651127,1491431741.9344069958, -0.1880, -0.0052,  0.0120,  0.0145, -0.0022,  0.0000
1491431741.9347848892,1491431741.9372150898, -0.1887, -0.0039,  0.0151,  0.0145, -0.0022,  0.0000
1491431741.9375929832,1491431741.9400238991, -0.1887, -0.0039,  0.0151,  0.0167, -0.0022, -0.0007
1491431741.9404020309,1491431741.9428310394, -0.1887, -0.0039,  0.0151,  0.0167, -0.0022, -0.0007
1491431741.9432079792,1491431741.9456439018, -0.1887, -0.0039,  0.0151,  0.0167, -0.0022, -0.0007
1491431741.9460198879,1491431741.9484450817, -0.1887, -0.0039,  0.0151,  0.0167, -0.0022, -0.0016
1491431741.9488220215,1491431741.9512569904, -0.1887, -0.0039,  0.0151,  0.0188, -0.0019, -0.0016
1491431741.9516360760,1491431741.9541120529, -0.1887, -0.0039,  0.0151,  0.0188, -0.0019, -0.0016
1491431741.9544899464,1491431741.9569199085, -0.1901, -0.0068,  0.0191,  0.0188, -0.0019, -0.0016
1491431741.9572989941,1491431741.9597249031, -0.1901, -0.0068,  0.0191,  0.0197, -0.0002, -0.0021
1491431741.9601030350,1491431741.9625320435, -0.1901, -0.0068,  0.0191,  0.0197, -0.0002, -0.0021
1491431741.9629089832,1491431741.9652900696, -0.1901, -0.0068,  0.0191,  0.0197, -0.0002, -0.0021
1491431741.9656610489,1491431741.9679570198, -0.1901, -0.0068,  0.0191,  0.0197, -0.0002, -0.0021
1491431741.9683270454,1491431741.9706280231, -0.1901, -0.0068,  0.0191,  0.0201,  0.0031, -0.0007
1491431741.9709970951,1491431741.9732980728, -0.1901, -0.0068,  0.0191,  0.0201,  0.0031, -0.0007
1491431741.9736680984,1491431741.9760160446, -0.1901, -0.0057,  0.0220,  0.0201,  0.0031, -0.0007
1491431741.9763851166,1491431741.9786849022, -0.1888, -0.0057,  0.0220,  0.0201,  0.0031, -0.0007
1491431741.9790558815,1491431741.9813549519, -0.1888, -0.0057,  0.0220,  0.0201,  0.0058,  0.0010
1491431741.9817249775,1491431741.9840319157, -0.1888, -0.0057,  0.0220,  0.0201,  0.0058,  0.0010
1491431741.9844689369,1491431741.9868969917, -0.1888, -0.0057,  0.0220,  0.0201,  0.0058,  0.0010
1491431741.9872760773,1491431741.9897060394, -0.1888, -0.0057,  0.0220,  0.0201,  0.0058,  0.0028
1491431741.9900839329,1491431741.9925069809, -0.1888, -0.0057,  0.0220,  0.0210,  0.0076,  0.0028
1491431741.9928851128,1491431741.9953300953, -0.1888, -0.0057,  0.0208,  0.0210,  0.0076,  0.0028
1491431741.9957070351,1491431741.9981350899, -0.1902, -0.0060,  0.0208,  0.0210,  0.0076,  0.0028
1491431741.9985129833,1491431742.0009429455, -0.1902, -0.0060,  0.0208,  0.0211,  0.0101,  0.0043
1491431742.0013210773,1491431742.0037519932, -0.1902, -0.0060,  0.0208,  0.0211,  0.0101,  0.0043
1491431742.0041389465,1491431742.0065729618, -0.1902, -0.0060,  0.0208,  0.0211,  0.0101,  0.0043
1491431742.0069520473,1491431742.0093810558, -0.1902, -0.0060,  0.0208,  0.0211,  0.0101,  0.0043
1491431742.0097589493,1491431742.0121910572, -0.1902, -0.0060,  0.0208,  0.0220,  0.0122,  0.0053
1491431742.0125689507,1491431742.0149691105, -0.1902, -0.0060,  0.0206,  0.0220,  0.0122,  0.0053
1491431742.0153388977,1491431742.0176401138, -0.1907, -0.0052,  0.0206,  0.0220,  0.0122,  0.0053
1491431742.0180089474,1491431742.0203120708, -0.1907, -0.0052,  0.0206,  0.0220,  0.0122,  0.0067
1491431742.0206820965,1491431742.0229809284, -0.1907, -0.0052,  0.0206,  0.0231,  0.0143,  0.0067
1491431742.0233509541,1491431742.0257689953, -0.1907, -0.0052,  0.0206,  0.0231,  0.0143,  0.0067
1491431742.0262570381,1491431742.0286850929, -0.1907, -0.0052,  0.0206,  0.0231,  0.0143,  0.0067
1491431742.0290620327,1491431742.0314900875, -0.1907, -0.0052,  0.0206,  0.0232,  0.0173,  0.0081
1491431742.0318660736,1491431742.0343089104, -0.1907, -0.0052,  0.0206,  0.0232,  0.0173,  0.0081
1491431742.0346860886,1491431742.0371150970, -0.1908, -0.0031,  0.0218,  0.0232,  0.0173,  0.0081
1491431742.0374920368,1491431742.0399200916, -0.1908, -0.0031,  0.0218,  0.0232,  0.0173,  0.0081
1491431742.0402970314,1491431742.0427300930, -0.1908, -0.0031,  0.0218,  0.0258,  0.0208,  0.0093
1491431742.0431070328,1491431742.0455451012, -0.1908, -0.0031,  0.0218,  0.0258,  0.0208,  0.0093
1491431742.0459220409,1491431742.0483460426, -0.1908, -0.0031,  0.0218,  0.0258,  0.0208,  0.0093
1491431742.0487239361,1491431742.0511550903, -0.1908, -0.0031,  0.0218,  0.0258,  0.0208,  0.0107
1491431742.0515298843,1491431742.0539579391, -0.1908, -0.0031,  0.0218,  0.0259,  0.0243,  0.0107
1491431742.0543360710,1491431742.0567660332, -0.1904, -0.0049,  0.0180,  0.0259,  0.0243,  0.0107
1491431742.0571429729,1491431742.0595719814, -0.1904, -0.0049,  0.0180,  0.0259,  0.0243,  0.0107
1491431742.0599489212,1491431742.0623729229, -0.1904, -0.0049,  0.0180,  0.0243,  0.0270,  0.0133
1491431742.0627479553,1491431742.0651390553, -0.1904, -0.0049,  0.0180,  0.0243,  0.0270,  0.0133
1491431742.0655078888,1491431742.0678100586, -0.1904, -0.0049,  0.0180,  0.0243,  0.0270,  0.0133
1491431742.0681779385,1491431742.0704770088, -0.1904, -0.0049,  0.0180,  0.0243,  0.0270,  0.0133
1491431742.0708460808,1491431742.0731461048, -0.1904, -0.0049,  0.0180,  0.0239,  0.0302,  0.0157
1491431742.0735130310,1491431742.0759680271, -0.1913, -0.0049,  0.0150,  0.0239,  0.0302,  0.0157
1491431742.0763449669,1491431742.0787739754, -0.1913, -0.0049,  0.0150,  0.0239,  0.0302,  0.0157
1491431742.0791509151,1491431742.0815799236, -0.1913, -0.0049,  0.0150,  0.0239,  0.0302,  0.0157
1491431742.0819571018,1491431742.0843970776, -0.1913, -0.0049,  0.0150,  0.0231,  0.0314,  0.0189
1491431742.0847740173,1491431742.0872058868, -0.1913, -0.0049,  0.0150,  0.0231,  0.0314,  0.0189
1491431742.0875809193,1491431742.0900099277, -0.1913, -0.0049,  0.0150,  0.0231,  0.0314,  0.0189
1491431742.0903859138,1491431742.0928111076, -0.1913, -0.0049,  0.0150,  0.0231,  0.0322,  0.0211
1491431742.0931870937,1491431742.0955550671, -0.1924, -0.0029,  0.0185,  0.0212,  0.0322,  0.0211
1491431742.0959229469,1491431742.0982201099, -0.1924, -0.0029,  0.0185,  0.0212,  0.0322,  0.0211
1491431742.0985889435,1491431742.1008930206, -0.1924, -0.0029,  0.0185,  0.0212,  0.0322,  0.0211
1491431742.1012609005,1491431742.1035621166, -0.1924, -0.0029,  0.0185,  0.0218,  0.0341,  0.0229
1491431742.1039299965,1491431742.1063690186, -0.1924, -0.0029,  0.0185,  0.0218,  0.0341,  0.0229
1491431742.1067459583,1491431742.1091740131, -0.1924, -0.0029,  0.0185,  0.0218,  0.0341,  0.0229
1491431742.1095490456,1491431742.1119780540, -0.1924, -0.0029,  0.0185,  0.0218,  0.0341,  0.0229
1491431742.1123530865,1491431742.1147580147, -0.1924, -0.0005,  0.0109,  0.0215,  0.0346,  0.0247
1491431742.1151280403,1491431742.1174321175, -0.1904, -0.0005,  0.0109,  0.0215,  0.0346,  0.0247
1491431742.1178019047,1491431742.1201000214, -0.1904, -0.0005,  0.0109,  0.0215,  0.0346,  0.0247
1491431742.1204679012,1491431742.1227700710, -0.1904, -0.0005,  0.0109,  0.0215,  0.0346,  0.0247
1491431742.1231389046,1491431742.1255640984, -0.1904, -0.0005,  0.0109,  0.0189,  0.0336,  0.0265
1491431742.1259410381,1491431742.1283710003, -0.1904, -0.0005,  0.0109,  0.0189,  0.0336,  0.0265
1491431742.1287469864,1491431742.1311740875, -0.1904, -0.0005,  0.0109,  0.0189,  0.0336,  0.0265
1491431742.1315479279,1491431742.1339941025, -0.1904, -0.0005,  0.0038,  0.0189,  0.0311,  0.0299
1491431742.1344261169,1491431742.1368520260, -0.1906,  0.0002,  0.0038,  0.0164,  0.0311,  0.0299
1491431742.1372289658,1491431742.1396610737, -0.1906,  0.0002,  0.0038,  0.0164,  0.0311,  0.0299
1491431742.1401400566,1491431742.1425659657, -0.1906,  0.0002,  0.0038,  0.0164,  0.0311,  0.0299
1491431742.1429429054,1491431742.1453840733, -0.1906,  0.0002,  0.0038,  0.0126,  0.0290,  0.0329
1491431742.1457610130,1491431742.1481881142, -0.1906,  0.0002,  0.0038,  0.0126,  0.0290,  0.0329
1491431742.1485650539,1491431742.1509909630, -0.1906,  0.0002,  0.0038,  0.0126,  0.0290,  0.0329
1491431742.1513659954,1491431742.1537959576, -0.1906,  0.0002,  0.0082,  0.0126,  0.0290,  0.0329
1491431742.1541769505,1491431742.1566081047, -0.1941, -0.0006,  0.0082,  0.0096,  0.0258,  0.0325
1491431742.1569869518,1491431742.1594181061, -0.1941, -0.0006,  0.0082,  0.0096,  0.0258,  0.0325
1491431742.1597959995,1491431742.1622231007, -0.1941, -0.0006,  0.0082,  0.0096,  0.0258,  0.0325
1491431742.1626000404,1491431742.1649789810, -0.1941, -0.0006,  0.0082,  0.0069,  0.0240,  0.0356
1491431742.1653490067,1491431742.1676518917, -0.1941, -0.0006,  0.0082,  0.0069,  0.0240,  0.0356
1491431742.1680231094,1491431742.1703279018, -0.1941, -0.0006,  0.0082,  0.0069,  0.0240,  0.0356
1491431742.1706988811,1491431742.1730000973, -0.1941, -0.0006,  0.0082,  0.0069,  0.0240,  0.0356
1491431742.1733689308,1491431742.1761209965, -0.1985, -0.0013,  0.0177,  0.0075,  0.0245,  0.0403
1491431742.1765029430,1491431742.1789329052, -0.1985, -0.0013,  0.0177,  0.0075,  0.0245,  0.0403
1491431742.1793129444,1491431742.1817350388, -0.1985, -0.0013,  0.0177,  0.0075,  0.0245,  0.0403
1491431742.1821129322,1491431742.1845519543, -0.1985, -0.0013,  0.0177,  0.0075,  0.0245,  0.0403
1491431742.1849288940,1491431742.1873550415, -0.1985, -0.0013,  0.0177,  0.0063,  0.0236,  0.0439
1491431742.1877319813,1491431742.1901640892, -0.1985, -0.0013,  0.0177,  0.0063,  0.0236,  0.0439
1491431742.1905410290,1491431742.1929700375, -0.1985, -0.0013,  0.0177,  0.0063,  0.0236,  0.0439
1491431742.1933469772,1491431742.1957869530, -0.2133, -0.0049,  0.0050,  0.0063,  0.0203,  0.0493
1491431742.1961650848,1491431742.1985969543, -0.2133, -0.0049,  0.0050,  0.0015,  0.0203,  0.0493
1491431742.1989769936,1491431742.2014019489, -0.2133, -0.0049,  0.0050,  0.0015,  0.0203,  0.0493
1491431742.2017788887,1491431742.2042191029, -0.2133, -0.0049,  0.0050,  0.0015,  0.0203,  0.0493
1491431742.2045910358,1491431742.2068920135, -0.2133, -0.0049,  0.0050,  0.0025,  0.0161,  0.0604
1491431742.2072620392,1491431742.2095649242, -0.2133, -0.0049,  0.0050,  0.0025,  0.0161,  0.0604
1491431742.2099359035,1491431742.2122409344, -0.2133, -0.0049,  0.0050,  0.0025,  0.0161,  0.0604
1491431742.2126090527,1491431742.2149310112, -0.2379, -0.0256,  0.0200,  0.0025,  0.0161,  0.0604
1491431742.2152988911,1491431742.2176001072, -0.2379, -0.0256,  0.0200,  0.0185,  0.0120,  0.0677
1491431742.2179689407,1491431742.2202720642, -0.2379, -0.0256,  0.0200,  0.0185,  0.0120,  0.0677
1491431742.2206399441,1491431742.2229399681, -0.2379, -0.0256,  0.0200,  0.0185,  0.0120,  0.0677
1491431742.2233090401,1491431742.2257370949, -0.2379, -0.0256,  0.0200,  0.0185,  0.0120,  0.0912
1491431742.2261118889,1491431742.2285029888, -0.2379, -0.0256,  0.0200,  0.0368,  0.0198,  0.0893
1491431742.2288761139,1491431742.2312660217, -0.2379, -0.0256,  0.0200,  0.0368,  0.0198,  0.0893
1491431742.2316389084,1491431742.2340400219, -0.2034, -0.0035,  0.0220,  0.0368,  0.0198,  0.0893
1491431742.2344720364,1491431742.2369019985, -0.2034, -0.0035,  0.0220,  0.0368,  0.0295,  0.1068
1491431742.2372779846,1491431742.2397000790, -0.2034, -0.0035,  0.0220,  0.0370,  0.0295,  0.1068
1491431742.2400770187,1491431742.2425050735, -0.2034, -0.0035,  0.0220,  0.0370,  0.0295,  0.1068
1491431742.2428829670,1491431742.2453200817, -0.2034, -0.0035,  0.0220,  0.0370,  0.0295,  0.1068
1491431742.2456979752,1491431742.2481269836, -0.2034, -0.0035,  0.0220,  0.0506,  0.0092,  0.1171
1491431742.2485051155,1491431742.2509350777, -0.2034, -0.0035,  0.0220,  0.0506,  0.0092,  0.1171
1491431742.2513129711,1491431742.2537488937, -0.2418, -0.0227,  0.0015,  0.0506,  0.0092,  0.1171
1491431742.2541370392,1491431742.2565689087, -0.2418, -0.0227,  0.0015,  0.0506,  0.0092,  0.1171
1491431742.2570710182,1491431742.2594940662, -0.2418, -0.0227,  0.0015,  0.0591,  0.0026,  0.1334
1491431742.2598719597,1491431742.2622981071, -0.2418, -0.0227,  0.0015,  0.0591,  0.0026,  0.1334
1491431742.2626760006,1491431742.2650649548, -0.2418, -0.0227,  0.0015,  0.0591,  0.0026,  0.1334
1491431742.2654368877,1491431742.2677381039, -0.2418, -0.0227,  0.0015,  0.0591,  0.0020,  0.1540
1491431742.2681100368,1491431742.2704060078, -0.2418, -0.0227,  0.0015,  0.0584,  0.0020,  0.1540
1491431742.2707760334,1491431742.2730789185, -0.2418, -0.0193,  0.0082,  0.0584,  0.0020,  0.1540
1491431742.2734489441,1491431742.2758529186, -0.2352, -0.0193,  0.0082,  0.0584,  0.0020,  0.1540
1491431742.2762300968,1491431742.2786579132, -0.2352, -0.0193,  0.0082,  0.0670, -0.0037,  0.1743
1491431742.2790350914,1491431742.2814610004, -0.2352, -0.0193,  0.0082,  0.0670, -0.0037,  0.1743
1491431742.2818379402,1491431742.2843060493, -0.2352, -0.0193,  0.0082,  0.0670, -0.0037,  0.1743
1491431742.2846820354,1491431742.2871038914, -0.2352, -0.0193,  0.0082,  0.0670, -0.0037,  0.1743
1491431742.2874810696,1491431742.2899088860, -0.2352, -0.0193,  0.0082,  0.0731, -0.0106,  0.1934
1491431742.2902870178,1491431742.2927129269, -0.2352, -0.0428, -0.0019,  0.0731, -0.0106,  0.1934
1491431742.2930901051,1491431742.2955250740, -0.2462, -0.0433, -0.0019,  0.0731, -0.0106,  0.1934
1491431742.2959020138,1491431742.2983279228, -0.2462, -0.0433, -0.0019,  0.0731, -0.0028,  0.2168
1491431742.2987070084,1491431742.3011319637, -0.2462, -0.0433, -0.0019,  0.0732, -0.0038,  0.2168
1491431742.3015089035,1491431742.3039340973, -0.2462, -0.0433, -0.0019,  0.0732, -0.0038,  0.2168
1491431742.3043200970,1491431742.3067500591, -0.2462, -0.0433, -0.0019,  0.0732, -0.0038,  0.2168
1491431742.3071289062,1491431742.3095569611, -0.2462, -0.0433, -0.0019,  0.0678, -0.0108,  0.2478
1491431742.3099329472,1491431742.3123569489, -0.2462, -0.0433,  0.0162,  0.0678, -0.0108,  0.2478
1491431742.3127350807,1491431742.3151190281, -0.2383, -0.0384,  0.0162,  0.0678, -0.0108,  0.2478
1491431742.3154869080,1491431742.3177900314, -0.2383, -0.0384,  0.0162,  0.0678, -0.0108,  0.2478
1491431742.3181591034,1491431742.3204550743, -0.2383, -0.0384,  0.0162,  0.0734, -0.0231,  0.2827
1491431742.3208250999,1491431742.3231289387, -0.2383, -0.0384,  0.0162,  0.0734, -0.0231,  0.2827
1491431742.3234970570,1491431742.3259561062, -0.2383, -0.0384,  0.0162,  0.0734, -0.0231,  0.2827
1491431742.3263330460,1491431742.3287661076, -0.2383, -0.0384,  0.0162,  0.0734, -0.0231,  0.3139
1491431742.3291420937,1491431742.3315730095, -0.2383, -0.0384,  0.0162,  0.0959, -0.0266,  0.3196
1491431742.3319489956,1491431742.3343920708, -0.2524, -0.0622,  0.0461,  0.0959, -0.0266,  0.3196
1491431742.3347671032,1491431742.3371920586, -0.2524, -0.0622,  0.0461,  0.0959, -0.0266,  0.3196
1491431742.3375689983,1491431742.3399960995, -0.2524, -0.0622,  0.0461,  0.1164, -0.0261,  0.3656
1491431742.3403730392,1491431742.3428020477, -0.2524, -0.0622,  0.0461,  0.1164, -0.0261,  0.3656
1491431742.3431758881,1491431742.3455460072, -0.2524, -0.0622,  0.0461,  0.1164, -0.0261,  0.3656
1491431742.3459138870,1491431742.3482189178, -0.2524, -0.0622,  0.0461,  0.1164, -0.0261,  0.3656
1491431742.3485879898,1491431742.3508939743, -0.2524, -0.0622,  0.0461,  0.1306, -0.0448,  0.4159
1491431742.3512620926,1491431742.3535659313, -0.2941, -0.0489,  0.0625,  0.1306, -0.0448,  0.4159
1491431742.3539359570,1491431742.3563690186, -0.2941, -0.0489,  0.0625,  0.1306, -0.0448,  0.4159
1491431742.3567459583,1491431742.3591721058, -0.2941, -0.0489,  0.0625,  0.1306, -0.0448,  0.4159
1491431742.3595480919,1491431742.3619780540, -0.2941, -0.0489,  0.0625,  0.1194, -0.0614,  0.4646
1491431742.3623540401,1491431742.3647611141, -0.2941, -0.0489,  0.0625,  0.1194, -0.0614,  0.4646
1491431742.3651320934,1491431742.3674340248, -0.2941, -0.0489,  0.0625,  0.1194, -0.0614,  0.4646
1491431742.3678019047,1491431742.3701078892, -0.2941, -0.0489,  0.0625,  0.1194, -0.0614,  0.5177
1491431742.3704779148,1491431742.3727810383, -0.3064,  0.0176,  0.0511,  0.0865, -0.0523,  0.5177
1491431742.3732600212,1491431742.3755729198, -0.3064,  0.0176,  0.0511,  0.0865, -0.0523,  0.5177
1491431742.3759419918,1491431742.3782460690, -0.3064,  0.0176,  0.0511,  0.0865, -0.0523,  0.5177
1491431742.3786160946,1491431742.3809161186, -0.3064,  0.0176,  0.0511,  0.0631, -0.0436,  0.5488
1491431742.3812839985,1491431742.3835849762, -0.3064,  0.0176,  0.0511,  0.0629, -0.0436,  0.5488
1491431742.3839509487,1491431742.3863871098, -0.3064,  0.0176,  0.0511,  0.0629, -0.0436,  0.5488
1491431742.3867640495,1491431742.3891921043, -0.3064,  0.0176,  0.0511,  0.0629, -0.0436,  0.5488
1491431742.3895680904,1491431742.3919880390, -0.3064,  0.0786,  0.0452,  0.0722, -0.0455,  0.5515
1491431742.3923621178,1491431742.3948020935, -0.3200,  0.0786,  0.0452,  0.0722, -0.0455,  0.5515
1491431742.3951768875,1491431742.3976020813, -0.3200,  0.0786,  0.0452,  0.0722, -0.0455,  0.5515
1491431742.3979780674,1491431742.4004030228, -0.3200,  0.0786,  0.0452,  0.0722, -0.0455,  0.5515
1491431742.4007809162,1491431742.4032049179, -0.3200,  0.0786,  0.0452,  0.0931, -0.0378,  0.5355
1491431742.4035799503,1491431742.4060220718, -0.3200,  0.0786,  0.0452,  0.0931, -0.0378,  0.5355
1491431742.4063980579,1491431742.4088211060, -0.3200,  0.0786,  0.0452,  0.0931, -0.0378,  0.5355
1491431742.4091959000,1491431742.4116210938, -0.3200,  0.0005,  0.0261,  0.0931, -0.0222,  0.5142
1491431742.4119980335,1491431742.4144060612, -0.2654,  0.0043,  0.0261,  0.0960, -0.0226,  0.5142
1491431742.4147760868,1491431742.4170770645, -0.2654,  0.0043,  0.0261,  0.0960, -0.0226,  0.5142
1491431742.4174458981,1491431742.4197509289, -0.2654,  0.0043,  0.0261,  0.0960, -0.0226,  0.5142
1491431742.4201200008,1491431742.4224190712, -0.2654,  0.0043,  0.0261,  0.0951, -0.0235,  0.4925
1491431742.4227890968,1491431742.4251680374, -0.2654,  0.0043,  0.0261,  0.0951, -0.0235,  0.4925
1491431742.4255430698,1491431742.4279561043, -0.2654,  0.0043,  0.0261,  0.0951, -0.0235,  0.4925
1491431742.4283308983,1491431742.4307420254, -0.2654,  0.0043,  0.0261,  0.0951, -0.0235,  0.4925
1491431742.4311170578,1491431742.4335319996, -0.1918, -0.0235,  0.0091,  0.1016, -0.0334,  0.4605
1491431742.4339098930,1491431742.4363100529, -0.1918, -0.0235,  0.0091,  0.1016, -0.0334,  0.4605
1491431742.4366860390,1491431742.4390759468, -0.1918, -0.0235,  0.0091,  0.1016, -0.0334,  0.4605
1491431742.4394519329,1491431742.4418420792, -0.1918, -0.0235,  0.0091,  0.1016, -0.0334,  0.4293
1491431742.4422171116,1491431742.4446280003, -0.1918, -0.0235,  0.0091,  0.1205, -0.0507,  0.4239
1491431742.4450058937,1491431742.4474339485, -0.1918, -0.0235,  0.0091,  0.1205, -0.0507,  0.4239
1491431742.4478108883,1491431742.4502429962, -0.1918, -0.0235,  0.0091,  0.1205, -0.0507,  0.4239
1491431742.4506208897,1491431742.4530479908, -0.1164, -0.0549, -0.0068,  0.1283, -0.0490,  0.3859
1491431742.4534239769,1491431742.4558560848, -0.1164, -0.0549, -0.0068,  0.1327, -0.0490,  0.3859
1491431742.4562358856,1491431742.4586629868, -0.1164, -0.0549, -0.0068,  0.1327, -0.0490,  0.3859
1491431742.4590399265,1491431742.4614639282, -0.1164, -0.0549, -0.0068,  0.1327, -0.0490,  0.3859
1491431742.4618399143,1491431742.4643049240, -0.1164, -0.0549, -0.0068,  0.1025, -0.0275,  0.3338
1491431742.4646759033,1491431742.4669759274, -0.1164, -0.0549, -0.0068,  0.1025, -0.0275,  0.3338
1491431742.4673490524,1491431742.4696509838, -0.1164, -0.0549, -0.0068,  0.1025, -0.0275,  0.3338
1491431742.4700219631,1491431742.4723229408, -0.0393,  0.0758,  0.0461,  0.1025, -0.0275,  0.3338
1491431742.4726920128,1491431742.4749948978, -0.0393,  0.0758,  0.0461,  0.0881, -0.0013,  0.1823
1491431742.4753639698,1491431742.4776659012, -0.0393,  0.0758,  0.0461,  0.0881, -0.0013,  0.1823
1491431742.4780349731,1491431742.4803369045, -0.0393,  0.0758,  0.0461,  0.0881, -0.0013,  0.1823
1491431742.4807059765,1491431742.4830079079, -0.0393,  0.0758,  0.0461,  0.0881, -0.0013,  0.0104
1491431742.4833779335,1491431742.4858000278, -0.0393,  0.0758,  0.0461,  0.0609, -0.0016,  0.0145
1491431742.4861779213,1491431742.4886050224, -0.0393,  0.0758,  0.0461,  0.0609, -0.0016,  0.0145
1491431742.4890930653,1491431742.4915220737, -0.1152, -0.0297,  0.0155,  0.0609, -0.0016,  0.0145
1491431742.4919009209,1491431742.4943399429, -0.1152, -0.0297,  0.0155, -0.0138,  0.0259, -0.0861
1491431742.4947180748,1491431742.4971430302, -0.1152, -0.0297,  0.0155, -0.0138,  0.0259, -0.0861
1491431742.4975190163,1491431742.4999480247, -0.1152, -0.0297,  0.0155, -0.0138,  0.0259, -0.0861
1491431742.5003259182,1491431742.5027539730, -0.1152, -0.0297,  0.0155, -0.0138,  0.0259, -0.0861
1491431742.5031321049,1491431742.5055689812, -0.1152, -0.0297,  0.0155, -0.0488,  0.0419, -0.1461
1491431742.5059449673,1491431742.5083720684, -0.1152, -0.0297,  0.0155, -0.0488,  0.0419, -0.1461
1491431742.5087490082,1491431742.5111770630, -0.1308, -0.0403, -0.0067, -0.0488,  0.0419, -0.1461
1491431742.5115559101,1491431742.5139849186, -0.1317, -0.0403, -0.0067, -0.0488,  0.0419, -0.1773
1491431742.5144059658,1491431742.5168340206, -0.1317, -0.0403, -0.0067, -0.0670,  0.0339, -0.1751
1491431742.5172109604,1491431742.5196359158, -0.1317, -0.0403, -0.0067, -0.0670,  0.0339, -0.1751
1491431742.5200130939,1491431742.5224380493, -0.1317, -0.0403, -0.0067, -0.0670,  0.0339, -0.1751
1491431742.5228149891,1491431742.5251870155, -0.1317, -0.0403, -0.0067, -0.0894,  0.0362, -0.1832
1491431742.5255560875,1491431742.5278580189, -0.1317, -0.0403, -0.0067, -0.0894,  0.0362, -0.1832
1491431742.5282280445,1491431742.5305318832, -0.1317, -0.0168,  0.0110, -0.0894,  0.0362, -0.1832
1491431742.5309009552,1491431742.5332019329, -0.1225, -0.0215,  0.0110, -0.0894,  0.0362, -0.1832
1491431742.5335719585,1491431742.5359849930, -0.1225, -0.0215,  0.0110, -0.0988,  0.0421, -0.1887
1491431742.5363650322,1491431742.5387880802, -0.1225, -0.0215,  0.0110, -0.0988,  0.0421, -0.1887
1491431742.5391650200,1491431742.5415880680, -0.1225, -0.0215,  0.0110, -0.0988,  0.0421, -0.1887
1491431742.5419640541,1491431742.5444059372, -0.1225, -0.0215,  0.0110, -0.0988,  0.0421, -0.1887
1491431742.5447840691,1491431742.5472071171, -0.1225, -0.0215,  0.0110, -0.1053,  0.0506, -0.2122
1491431742.5475840569,1491431742.5500130653, -0.1225, -0.0215,  0.0168, -0.1053,  0.0506, -0.2122
1491431742.5503880978,1491431742.5528159142, -0.1123,  0.0060,  0.0168, -0.1053,  0.0506, -0.2122
1491431742.5531940460,1491431742.5556290150, -0.1123,  0.0060,  0.0168, -0.1053,  0.0662, -0.2514
1491431742.5560090542,1491431742.5584309101, -0.1123,  0.0060,  0.0168, -0.1083,  0.0651, -0.2514
1491431742.5588109493,1491431742.5612409115, -0.1123,  0.0060,  0.0168, -0.1083,  0.0651, -0.2514
1491431742.5616199970,1491431742.5640480518, -0.1123,  0.0060,  0.0168, -0.1083,  0.0651, -0.2514
1491431742.5644700527,1491431742.5668981075, -0.1123,  0.0060,  0.0168, -0.1061,  0.0802, -0.2982
1491431742.5672769547,1491431742.5697059631, -0.1123,  0.0060,  0.0168, -0.1061,  0.0802, -0.2982
1491431742.5700850487,1491431742.5725080967, -0.1060,  0.0180,  0.0192, -0.1061,  0.0802, -0.2982
1491431742.5728850365,1491431742.5752599239, -0.1060,  0.0180,  0.0192, -0.1061,  0.0802, -0.2982
1491431742.5756320953,1491431742.5779390335, -0.1060,  0.0180,  0.0192, -0.1017,  0.0912, -0.3440
1491431742.5783090591,1491431742.5806100368, -0.1060,  0.0180,  0.0192, -0.1017,  0.0912, -0.3440
1491431742.5809810162,1491431742.5832829475, -0.1060,  0.0180,  0.0192, -0.1017,  0.0912, -0.3440
1491431742.5836539268,1491431742.5859570503, -0.1060,  0.0180,  0.0192, -0.1017,  0.0912, -0.3831
1491431742.5863270760,1491431742.5886271000, -0.1060,  0.0180,  0.0192, -0.0948,  0.0962, -0.3838
1491431742.5889959335,1491431742.5912930965, -0.1192,  0.0163,  0.0148, -0.0948,  0.0962, -0.3838
1491431742.5916619301,1491431742.5939610004, -0.1192,  0.0163,  0.0148, -0.0948,  0.0962, -0.3838
1491431742.5943410397,1491431742.5967669487, -0.1192,  0.0163,  0.0148, -0.0948,  0.0962, -0.4127
1491431742.5971438885,1491431742.5995728970, -0.1192,  0.0163,  0.0148, -0.0837,  0.0956, -0.4127
1491431742.5999488831,1491431742.6023778915, -0.1192,  0.0163,  0.0148, -0.0837,  0.0956, -0.4127
1491431742.6027550697,1491431742.6051969528, -0.1192,  0.0163,  0.0148, -0.0837,  0.0956, -0.4127
1491431742.6056818962,1491431742.6081070900, -0.1192,  0.0163,  0.0148, -0.0720,  0.0894, -0.4337
1491431742.6084830761,1491431742.6109139919, -0.1374,  0.0158,  0.0184, -0.0720,  0.0894, -0.4337
1491431742.6112918854,1491431742.6137189865, -0.1374,  0.0158,  0.0184, -0.0720,  0.0894, -0.4337
1491431742.6141059399,1491431742.6165330410, -0.1374,  0.0158,  0.0184, -0.0720,  0.0894, -0.4337
1491431742.6169068813,1491431742.6193339825, -0.1374,  0.0158,  0.0184, -0.0554,  0.0809, -0.4519
1491431742.6197109222,1491431742.6221389771, -0.1374,  0.0158,  0.0184, -0.0554,  0.0809, -0.4519
1491431742.6225171089,1491431742.6249148846, -0.1374,  0.0158,  0.0184, -0.0554,  0.0809, -0.4519
1491431742.6252849102,1491431742.6275930405, -0.1374,  0.0158,  0.0184, -0.0554,  0.0652, -0.4669
1491431742.6279621124,1491431742.6302649975, -0.1522,  0.0121,  0.0254, -0.0372,  0.0696, -0.4669
1491431742.6306340694,1491431742.6329360008, -0.1522,  0.0121,  0.0254, -0.0372,  0.0696, -0.4669
1491431742.6333050728,1491431742.6357510090, -0.1522,  0.0121,  0.0254, -0.0372,  0.0696, -0.4669
1491431742.6361289024,1491431742.6385569572, -0.1522,  0.0121,  0.0254, -0.0222,  0.0583, -0.4752
1491431742.6389319897,1491431742.6413590908, -0.1522,  0.0121,  0.0254, -0.0222,  0.0583, -0.4752
1491431742.6417338848,1491431742.6441669464, -0.1522,  0.0121,  0.0254, -0.0222,  0.0583, -0.4752
1491431742.6445429325,1491431742.6469740868, -0.1522,  0.0121,  0.0254, -0.0222,  0.0583, -0.4752
1491431742.6473500729,1491431742.6497759819, -0.1756,  0.0040,  0.0262, -0.0158,  0.0460, -0.4778
1491431742.6501541138,1491431742.6525800228, -0.1749,  0.0040,  0.0262, -0.0158,  0.0460, -0.4778
1491431742.6529579163,1491431742.6554000378, -0.1749,  0.0040,  0.0262, -0.0158,  0.0460, -0.4778
1491431742.6557779312,1491431742.6582090855, -0.1749,  0.0040,  0.0262, -0.0158,  0.0460, -0.4764
1491431742.6585850716,1491431742.6610078812, -0.1749,  0.0040,  0.0262, -0.0181,  0.0329, -0.4764
1491431742.6613841057,1491431742.6638069153, -0.1749,  0.0040,  0.0262, -0.0181,  0.0329, -0.4764
1491431742.6641950607,1491431742.6666219234, -0.1749,  0.0040,  0.0262, -0.0181,  0.0329, -0.4764
1491431742.6669969559,1491431742.6694269180, -0.1749, -0.0060,  0.0288, -0.0288,  0.0182, -0.4697
1491431742.6698029041,1491431742.6722290516, -0.2056, -0.0060,  0.0288, -0.0288,  0.0182, -0.4697
1491431742.6726069450,1491431742.6749899387, -0.2056, -0.0060,  0.0288, -0.0288,  0.0182, -0.4697
1491431742.6753609180,1491431742.6776630878, -0.2056, -0.0060,  0.0288, -0.0288,  0.0182, -0.4697
1491431742.6780319214,1491431742.6803340912, -0.2056, -0.0060,  0.0288, -0.0385,  0.0056, -0.4668
1491431742.6807041168,1491431742.6830079556, -0.2056, -0.0060,  0.0288, -0.0385,  0.0056, -0.4668
1491431742.6833770275,1491431742.6857860088, -0.2056, -0.0060,  0.0288, -0.0385,  0.0056, -0.4668
1491431742.6861650944,1491431742.6885929108, -0.2056, -0.0060,  0.0366, -0.0385,  0.0056, -0.4668
1491431742.6889719963,1491431742.6913990974, -0.2256, -0.0063,  0.0348, -0.0530, -0.0019, -0.4670
1491431742.6917769909,1491431742.6942129135, -0.2256, -0.0063,  0.0348, -0.0530, -0.0019, -0.4670
1491431742.6945910454,1491431742.6970109940, -0.2256, -0.0063,  0.0348, -0.0530, -0.0019, -0.4670
1491431742.6973900795,1491431742.6998190880, -0.2256, -0.0063,  0.0348, -0.0530, -0.0088, -0.4727
1491431742.7001969814,1491431742.7026219368, -0.2256, -0.0063,  0.0348, -0.0700, -0.0088, -0.4727
1491431742.7030000687,1491431742.7054369450, -0.2256, -0.0063,  0.0348, -0.0700, -0.0088, -0.4727
1491431742.7058160305,1491431742.7082509995, -0.2256, -0.0063,  0.0348, -0.0700, -0.0088, -0.4727
1491431742.7086288929,1491431742.7112669945, -0.2464,  0.0024,  0.0284, -0.0874, -0.0190, -0.4809
1491431742.7116489410,1491431742.7143199444, -0.2464,  0.0024,  0.0284, -0.0874, -0.0190, -0.4809
1491431742.7147030830,1491431742.7170040607, -0.2464,  0.0024,  0.0284, -0.0874, -0.0190, -0.4809
1491431742.7173759937,1491431742.7196760178, -0.2464,  0.0024,  0.0284, -0.0874, -0.0190, -0.4887
1491431742.7201809883,1491431742.7225680351, -0.2464,  0.0024,  0.0284, -0.1030, -0.0286, -0.4865
1491431742.7229390144,1491431742.7252790928, -0.2464,  0.0024,  0.0284, -0.1030, -0.0286, -0.4865
1491431742.7256500721,1491431742.7279369831, -0.2464,  0.0024,  0.0284, -0.1030, -0.0286, -0.4865
1491431742.7283089161,1491431742.7306048870, -0.2747,  0.0121,  0.0254, -0.1030, -0.0380, -0.4901
1491431742.7310540676,1491431742.7333669662, -0.2747,  0.0121,  0.0254, -0.1130, -0.0380, -0.4901
1491431742.7337379456,1491431742.7360579967, -0.2747,  0.0121,  0.0254, -0.1130, -0.0380, -0.4901
1491431742.7364280224,1491431742.7387249470, -0.2747,  0.0121,  0.0254, -0.1130, -0.0380, -0.4901
1491431742.7390940189,1491431742.7414600849, -0.2747,  0.0121,  0.0254, -0.1211, -0.0445, -0.4911
1491431742.7418310642,1491431742.7441658974, -0.2747,  0.0121,  0.0254, -0.1211, -0.0445, -0.4911
1491431742.7445371151,1491431742.7468330860, -0.2747,  0.0121,  0.0254, -0.1211, -0.0445, -0.4911
1491431742.7472009659,1491431742.7494959831, -0.3044,  0.0215,  0.0260, -0.1211, -0.0445, -0.4911
1491431742.7498660088,1491431742.7522549629, -0.3044,  0.0215,  0.0260, -0.1269, -0.0465, -0.4888
1491431742.7526240349,1491431742.7549860477, -0.3044,  0.0215,  0.0260, -0.1269, -0.0465, -0.4888
1491431742.7553610802,1491431742.7577579021, -0.3044,  0.0215,  0.0260, -0.1269, -0.0465, -0.4888
1491431742.7581338882,1491431742.7605280876, -0.3044,  0.0215,  0.0260, -0.1269, -0.0465, -0.4888
1491431742.7609028816,1491431742.7633569241, -0.3044,  0.0215,  0.0260, -0.1310, -0.0444, -0.4884
1491431742.7637329102,1491431742.7661740780, -0.3044,  0.0215,  0.0260, -0.1310, -0.0444, -0.4884
1491431742.7665529251,1491431742.7689800262, -0.3254,  0.0471,  0.0310, -0.1310, -0.0444, -0.4884
1491431742.7693569660,1491431742.7717831135, -0.3254,  0.0471,  0.0310, -0.1310, -0.0344, -0.4894
1491431742.7721590996,1491431742.7745769024, -0.3254,  0.0471,  0.0310, -0.1319, -0.0344, -0.4894
1491431742.7749440670,1491431742.7772459984, -0.3254,  0.0471,  0.0310, -0.1319, -0.0344, -0.4894
1491431742.7776160240,1491431742.7799160480, -0.3254,  0.0471,  0.0310, -0.1319, -0.0344, -0.4894
1491431742.7802860737,1491431742.7825880051, -0.3254,  0.0471,  0.0310, -0.1275, -0.0225, -0.4873
1491431742.7829570770,1491431742.7852931023, -0.3254,  0.0471,  0.0310, -0.1275, -0.0225, -0.4873
1491431742.7856600285,1491431742.7879600525, -0.3254,  0.0628,  0.0318, -0.1275, -0.0225, -0.4873
1491431742.7883279324,1491431742.7906270027, -0.3268,  0.0661,  0.0318, -0.1275, -0.0225, -0.4873
1491431742.7909960747,1491431742.7932939529, -0.3268,  0.0661,  0.0318, -0.1163, -0.0146, -0.4788
1491431742.7936639786,1491431742.7961440086, -0.3268,  0.0661,  0.0318, -0.1163, -0.0146, -0.4788
1491431742.7965209484,1491431742.7989480495, -0.3268,  0.0661,  0.0318, -0.1163, -0.0146, -0.4788
1491431742.7993259430,1491431742.8017470837, -0.3268,  0.0661,  0.0318, -0.1163, -0.0146, -0.4788
1491431742.8021230698,1491431742.8045599461, -0.3268,  0.0661,  0.0318, -0.1012, -0.0098, -0.4643
1491431742.8049399853,1491431742.8073649406, -0.3268,  0.0661,  0.0240, -0.1012, -0.0098, -0.4643
1491431742.8077421188,1491431742.8101689816, -0.3098,  0.0711,  0.0288, -0.1012, -0.0098, -0.4643
1491431742.8105480671,1491431742.8129739761, -0.3098,  0.0711,  0.0288, -0.1012, -0.0102, -0.4462
1491431742.8133509159,1491431742.8157880306, -0.3098,  0.0711,  0.0288, -0.0848, -0.0102, -0.4462
1491431742.8161630630,1491431742.8185849190, -0.3098,  0.0711,  0.0288, -0.0848, -0.0102, -0.4462
1491431742.8189609051,1491431742.8213820457, -0.3098,  0.0711,  0.0288, -0.0848, -0.0102, -0.4462
1491431742.8217570782,1491431742.8241899014, -0.3098,  0.0711,  0.0288, -0.0678, -0.0124, -0.4247
1491431742.8245589733,1491431742.8268620968, -0.3098,  0.0711,  0.0288, -0.0678, -0.0124, -0.4247
1491431742.8272309303,1491431742.8295309544, -0.2828,  0.0905,  0.0056, -0.0678, -0.0124, -0.4247
1491431742.8299000263,1491431742.8322010040, -0.2828,  0.0905,  0.0056, -0.0678, -0.0124, -0.4247
1491431742.8325700760,1491431742.8350110054, -0.2828,  0.0905,  0.0056, -0.0492, -0.0140, -0.4000
1491431742.8355090618,1491431742.8379309177, -0.2828,  0.0905,  0.0056, -0.0492, -0.0140, -0.4000
1491431742.8383080959,1491431742.8407320976, -0.2828,  0.0905,  0.0056, -0.0492, -0.0140, -0.4000
1491431742.8411080837,1491431742.8435359001, -0.2828,  0.0905,  0.0056, -0.0492, -0.0140, -0.3730
1491431742.8439130783,1491431742.8463509083, -0.2828,  0.0905,  0.0056, -0.0375, -0.0119, -0.3730
1491431742.8467299938,1491431742.8491549492, -0.2590,  0.1232,  0.0050, -0.0375, -0.0119, -0.3730
1491431742.8495318890,1491431742.8519580364, -0.2590,  0.1232,  0.0050, -0.0375, -0.0119, -0.3730
1491431742.8523349762,1491431742.8547770977, -0.2590,  0.1232,  0.0050, -0.0370, -0.0045, -0.3375
1491431742.8551559448,1491431742.8575820923, -0.2590,  0.1232,  0.0050, -0.0370, -0.0045, -0.3375
1491431742.8579599857,1491431742.8603880405, -0.2590,  0.1232,  0.0050, -0.0370, -0.0045, -0.3375
1491431742.8607659340,1491431742.8631899357, -0.2590,  0.1232,  0.0050, -0.0370, -0.0045, -0.3375
1491431742.8635680676,1491431742.8660109043, -0.2590,  0.1232,  0.0050, -0.0377,  0.0057, -0.2959
1491431742.8663880825,1491431742.8688108921, -0.2260,  0.1677,  0.0047, -0.0377,  0.0057, -0.2959
1491431742.8691890240,1491431742.8716149330, -0.2260,  0.1677,  0.0047, -0.0377,  0.0057, -0.2959
1491431742.8719909191,1491431742.8744149208, -0.2260,  0.1677,  0.0047, -0.0377,  0.0057, -0.2471
1491431742.8747859001,1491431742.8770909309, -0.2260,  0.1677,  0.0047, -0.0279,  0.0144, -0.2471
1491431742.8774600029,1491431742.8797628880, -0.2260,  0.1677,  0.0047, -0.0279,  0.0144, -0.2471
1491431742.8801319599,1491431742.8824279308, -0.2260,  0.1677,  0.0047, -0.0279,  0.0144, -0.2471
1491431742.8827979565,1491431742.8851881027, -0.2260,  0.1677,  0.0047, -0.0123,  0.0170, -0.1898
1491431742.8855659962,1491431742.8879969120, -0.1992,  0.1972,  0.0078, -0.0103,  0.0170, -0.1898
1491431742.8883759975,1491431742.8907980919, -0.1992,  0.1972,  0.0078, -0.0103,  0.0170, -0.1898
1491431742.8911728859,1491431742.8936049938, -0.1992,  0.1972,  0.0078, -0.0103,  0.0170, -0.1898
1491431742.8939809799,1491431742.8964190483, -0.1992,  0.1972,  0.0078,  0.0085,  0.0133, -0.1263
1491431742.8967959881,1491431742.8992199898, -0.1992,  0.1972,  0.0078,  0.0085,  0.0133, -0.1263
1491431742.8996000290,1491431742.9020290375, -0.1992,  0.1972,  0.0078,  0.0085,  0.0133, -0.1263
1491431742.9024059772,1491431742.9048380852, -0.1992,  0.1972,  0.0078,  0.0085,  0.0133, -0.0560
1491431742.9052159786,1491431742.9076480865, -0.1863,  0.1677, -0.0117,  0.0228,  0.0043, -0.0591
1491431742.9080240726,1491431742.9104449749, -0.1863,  0.1677, -0.0117,  0.0228,  0.0043, -0.0591
1491431742.9108219147,1491431742.9132509232, -0.1863,  0.1677, -0.0117,  0.0228,  0.0043, -0.0591
1491431742.9136300087,1491431742.9160580635, -0.1863,  0.1677, -0.0117,  0.0306, -0.0048,  0.0033
1491431742.9164340496,1491431742.9188609123, -0.1863,  0.1677, -0.0117,  0.0295, -0.0048,  0.0033
1491431742.9192390442,1491431742.9216649532, -0.1863,  0.1677, -0.0117,  0.0295, -0.0048,  0.0033
1491431742.9220418930,1491431742.9244930744, -0.1863,  0.1677, -0.0117,  0.0295, -0.0048,  0.0033
1491431742.9248619080,1491431742.9271650314, -0.2019,  0.1280, -0.0062,  0.0305, -0.0071,  0.0512
1491431742.9275369644,1491431742.9298350811, -0.2010,  0.1280, -0.0062,  0.0305, -0.0071,  0.0512
1491431742.9302070141,1491431742.9325070381, -0.2010,  0.1280, -0.0062,  0.0305, -0.0071,  0.0512
1491431742.9328789711,1491431742.9352490902, -0.2010,  0.1280, -0.0062,  0.0305, -0.0071,  0.0512
1491431742.9356269836,1491431742.9380528927, -0.2010,  0.1280, -0.0062,  0.0242,  0.0039,  0.0835
1491431742.9384310246,1491431742.9408550262, -0.2010,  0.1280, -0.0062,  0.0242,  0.0039,  0.0835
1491431742.9412341118,1491431742.9436600208, -0.2010,  0.1280, -0.0062,  0.0242,  0.0039,  0.0835
1491431742.9440400600,1491431742.9465129375, -0.2010,  0.1280, -0.0070,  0.0242,  0.0195,  0.1051
1491431742.9468910694,1491431742.9493188858, -0.2230,  0.0578, -0.0070,  0.0139,  0.0209,  0.1051
1491431742.9496951103,1491431742.9521200657, -0.2230,  0.0578, -0.0070,  0.0139,  0.0209,  0.1051
1491431742.9526081085,1491431742.9550349712, -0.2230,  0.0578, -0.0070,  0.0139,  0.0209,  0.1051
1491431742.9554119110,1491431742.9578409195, -0.2230,  0.0578, -0.0070,  0.0300,  0.0188,  0.1522
1491431742.9582200050,1491431742.9606449604, -0.2230,  0.0578, -0.0070,  0.0300,  0.0188,  0.1522
1491431742.9610249996,1491431742.9634521008, -0.2230,  0.0578, -0.0070,  0.0300,  0.0188,  0.1522
1491431742.9638290405,1491431742.9662649632, -0.2230,  0.0578,  0.0576,  0.0300,  0.0188,  0.1522
1491431742.9666409492,1491431742.9690709114, -0.2402, -0.0962,  0.0576,  0.1089,  0.0160,  0.2529
1491431742.9694480896,1491431742.9718708992, -0.2402, -0.0962,  0.0576,  0.1089,  0.0160,  0.2529
1491431742.9722490311,1491431742.9747169018, -0.2402, -0.0962,  0.0576,  0.1089,  0.0160,  0.2529
1491431742.9750869274,1491431742.9773890972, -0.2402, -0.0962,  0.0576,  0.1089,  0.1019,  0.2012
1491431742.9777579308,1491431742.9800570011, -0.2402, -0.0962,  0.0576,  0.1414,  0.1047,  0.2012
1491431742.9804239273,1491431742.9827289581, -0.2402, -0.0962,  0.0576,  0.1414,  0.1047,  0.2012
1491431742.9830970764,1491431742.9854431152, -0.2402, -0.0962,  0.0576,  0.1414,  0.1047,  0.2012
1491431742.9858119488,1491431742.9881069660, -0.1682, -0.3012, -0.0608,  0.1024,  0.0417,  0.1728
1491431742.9884750843,1491431742.9907760620, -0.1682, -0.3012, -0.0608,  0.1056,  0.0417,  0.1728
1491431742.9911439419,1491431742.9934439659, -0.1682, -0.3012, -0.0608,  0.1056,  0.0417,  0.1728
1491431742.9938120842,1491431742.9962360859, -0.1682, -0.3012, -0.0608,  0.1056,  0.0417,  0.1728
1491431742.9966139793,1491431742.9990370274, -0.1682, -0.3012, -0.0608,  0.0016, -0.0041,  0.3089
1491431742.9994161129,1491431743.0018401146, -0.1682, -0.3012, -0.0608,  0.0016, -0.0041,  0.3089
1491431743.0022180080,1491431743.0046460629, -0.1682, -0.3012, -0.0608,  0.0016, -0.0041,  0.3089
1491431743.0050220490,1491431743.0074439049, -0.1569, -0.0269,  0.1006,  0.0016, -0.0041,  0.3089
1491431743.0078220367,1491431743.0102519989, -0.1569, -0.0269,  0.1006, -0.0976, -0.0392,  0.4353
1491431743.0106298923,1491431743.0130529404, -0.1569, -0.0269,  0.1006, -0.0976, -0.0392,  0.4353
1491431743.0134301186,1491431743.0158600807, -0.1569, -0.0269,  0.1006, -0.0976, -0.0392,  0.4353
1491431743.0162370205,1491431743.0186619759, -0.1569, -0.0269,  0.1006, -0.0976, -0.1017,  0.4005
1491431743.0190420151,1491431743.0214641094, -0.1569, -0.0269,  0.1006, -0.1169, -0.1072,  0.4005
1491431743.0218420029,1491431743.0243101120, -0.1569, -0.0269,  0.1006, -0.1169, -0.1072,  0.4005
1491431743.0246889591,1491431743.0271160603, -0.2563,  0.0858,  0.0118, -0.1169, -0.1072,  0.4005
1491431743.0274910927,1491431743.0299170017, -0.2563,  0.0858,  0.0118, -0.0362, -0.0943,  0.3170
1491431743.0302960873,1491431743.0327250957, -0.2563,  0.0858,  0.0118, -0.0362, -0.0943,  0.3170
1491431743.0331010818,1491431743.0354669094, -0.2563,  0.0858,  0.0118, -0.0362, -0.0943,  0.3170
1491431743.0358369350,1491431743.0381391048, -0.2563,  0.0858,  0.0118, -0.0362, -0.0943,  0.3170
1491431743.0385079384,1491431743.0408129692, -0.2563,  0.0858,  0.0118,  0.0185, -0.0772,  0.2852
1491431743.0411820412,1491431743.0434799194, -0.2563,  0.0858,  0.0118,  0.0185, -0.0772,  0.2852
1491431743.0438489914,1491431743.0463089943, -0.2563,  0.0658, -0.0525,  0.0185, -0.0772,  0.2852
1491431743.0466849804,1491431743.0491080284, -0.2553,  0.0658, -0.0525,  0.0185, -0.0772,  0.2429
1491431743.0494821072,1491431743.0519070625, -0.2553,  0.0658, -0.0525,  0.0665, -0.0604,  0.2429
1491431743.0522830486,1491431743.0547170639, -0.2553,  0.0658, -0.0525,  0.0665, -0.0604,  0.2429
1491431743.0550920963,1491431743.0575180054, -0.2553,  0.0658, -0.0525,  0.0665, -0.0604,  0.2429
1491431743.0578939915,1491431743.0603189468, -0.2553,  0.0658, -0.0525,  0.0997, -0.0614,  0.2017
1491431743.0606949329,1491431743.0631210804, -0.2553,  0.0658, -0.0525,  0.0997, -0.0614,  0.2017
1491431743.0634989738,1491431743.0659348965, -0.2553, -0.0185,  0.0391,  0.0997, -0.0614,  0.2017
1491431743.0663120747,1491431743.0687360764, -0.1895, -0.0185,  0.0391,  0.0997, -0.0614,  0.2017
1491431743.0692191124,1491431743.0716419220, -0.1895, -0.0185,  0.0391,  0.0677, -0.0627,  0.1793
1491431743.0720200539,1491431743.0744469166, -0.1895, -0.0185,  0.0391,  0.0677, -0.0627,  0.1793
1491431743.0748219490,1491431743.0772519112, -0.1895, -0.0185,  0.0391,  0.0677, -0.0627,  0.1793
1491431743.0776269436,1491431743.0800559521, -0.1895, -0.0185,  0.0391,  0.0677, -0.0627,  0.1559
1491431743.0804328918,1491431743.0828580856, -0.1895, -0.0185,  0.0391,  0.0315, -0.0635,  0.1559
1491431743.0832340717,1491431743.0856239796, -0.1895, -0.0092,  0.0703,  0.0315, -0.0635,  0.1559
1491431743.0859940052,1491431743.0882959366, -0.2025, -0.0092,  0.0703,  0.0315, -0.0635,  0.1559
1491431743.0886640549,1491431743.0909650326, -0.2025, -0.0092,  0.0703,  0.0002, -0.0603,  0.1482
1491431743.0913350582,1491431743.0936369896, -0.2025, -0.0092,  0.0703,  0.0014, -0.0603,  0.1482
1491431743.0940060616,1491431743.0964379311, -0.2025, -0.0092,  0.0703,  0.0014, -0.0603,  0.1482
1491431743.0968179703,1491431743.0992450714, -0.2025, -0.0092,  0.0703,  0.0014, -0.0603,  0.1482
