timestamp_before,timestamp_after,accel_x,accel_y,accel_z,gyro_x,gyro_y,gryo_z
1491431559.4152491093,1491431559.4176659584, -0.2176, -0.0091, -0.0092,  0.0070,  0.0023, -0.0125
1491431559.4181170464,1491431559.4204130173, -0.2176, -0.0091, -0.0092,  0.0069,  0.0031, -0.0115
1491431559.4207849503,1491431559.4230890274, -0.2176, -0.0091, -0.0038,  0.0069,  0.0031, -0.0115
1491431559.4234609604,1491431559.4257938862, -0.1888, -0.0074, -0.0038,  0.0069,  0.0031, -0.0115
1491431559.4261639118,1491431559.4284598827, -0.1888, -0.0074, -0.0038,  0.0069,  0.0031, -0.0115
1491431559.4288299084,1491431559.4311339855, -0.1888, -0.0074, -0.0038,  0.0065,  0.0041, -0.0096
1491431559.4315030575,1491431559.4337999821, -0.1888, -0.0074, -0.0038,  0.0065,  0.0041, -0.0096
1491431559.4342689514,1491431559.4365880489, -0.1888, -0.0074, -0.0038,  0.0065,  0.0041, -0.0096
1491431559.4369580746,1491431559.4392569065, -0.1888, -0.0074, -0.0038,  0.0065,  0.0041, -0.0096
1491431559.4396278858,1491431559.4419209957, -0.1888, -0.0074, -0.0038,  0.0065,  0.0041, -0.0114
1491431559.4422919750,1491431559.4446039200, -0.1899, -0.0076, -0.0028,  0.0065,  0.0041, -0.0114
1491431559.4449748993,1491431559.4472789764, -0.1899, -0.0076, -0.0028,  0.0065,  0.0041, -0.0114
1491431559.4476480484,1491431559.4499430656, -0.1899, -0.0076, -0.0028,  0.0065,  0.0041, -0.0114
1491431559.4503130913,1491431559.4526200294, -0.1899, -0.0076, -0.0028,  0.0065,  0.0045, -0.0113
1491431559.4529900551,1491431559.4553899765, -0.1899, -0.0076, -0.0028,  0.0065,  0.0045, -0.0113
1491431559.4557690620,1491431559.4581859112, -0.1899, -0.0076, -0.0028,  0.0065,  0.0045, -0.0113
1491431559.4585618973,1491431559.4609720707, -0.1899, -0.0076, -0.0028,  0.0065,  0.0045, -0.0110
1491431559.4613490105,1491431559.4637610912, -0.1900, -0.0077, -0.0045,  0.0070,  0.0045, -0.0110
1491431559.4641470909,1491431559.4665660858, -0.1900, -0.0077, -0.0045,  0.0070,  0.0045, -0.0110
1491431559.4669449329,1491431559.4693589211, -0.1900, -0.0077, -0.0045,  0.0070,  0.0045, -0.0110
1491431559.4697349072,1491431559.4721469879, -0.1900, -0.0077, -0.0045,  0.0062,  0.0045, -0.0110
1491431559.4725239277,1491431559.4749429226, -0.1900, -0.0077, -0.0045,  0.0062,  0.0045, -0.0110
1491431559.4753201008,1491431559.4777081013, -0.1900, -0.0077, -0.0045,  0.0062,  0.0045, -0.0110
1491431559.4780840874,1491431559.4807159901, -0.1900, -0.0077, -0.0045,  0.0062,  0.0045, -0.0110
1491431559.4811060429,1491431559.4834198952, -0.1907, -0.0079, -0.0020,  0.0067,  0.0042, -0.0113
1491431559.4837949276,1491431559.4862470627, -0.1907, -0.0079, -0.0020,  0.0067,  0.0042, -0.0113
1491431559.4866230488,1491431559.4889171124, -0.1907, -0.0079, -0.0020,  0.0067,  0.0042, -0.0113
1491431559.4892909527,1491431559.4915831089, -0.1907, -0.0079, -0.0020,  0.0067,  0.0042, -0.0113
1491431559.4919528961,1491431559.4943649769, -0.1907, -0.0079, -0.0020,  0.0057,  0.0046, -0.0123
1491431559.4947350025,1491431559.4970319271, -0.1907, -0.0079, -0.0020,  0.0057,  0.0046, -0.0123
1491431559.4974040985,1491431559.4996991158, -0.1907, -0.0079, -0.0020,  0.0057,  0.0046, -0.0123
1491431559.5000689030,1491431559.5023670197, -0.1907, -0.0079, -0.0035,  0.0057,  0.0046, -0.0112
1491431559.5027379990,1491431559.5050840378, -0.1892, -0.0073, -0.0035,  0.0058,  0.0045, -0.0112
1491431559.5054540634,1491431559.5077450275, -0.1892, -0.0073, -0.0035,  0.0058,  0.0045, -0.0112
1491431559.5081150532,1491431559.5104100704, -0.1892, -0.0073, -0.0035,  0.0058,  0.0045, -0.0112
1491431559.5107810497,1491431559.5130710602, -0.1892, -0.0073, -0.0035,  0.0068,  0.0049, -0.0116
1491431559.5134420395,1491431559.5157380104, -0.1892, -0.0073, -0.0035,  0.0068,  0.0049, -0.0116
1491431559.5161089897,1491431559.5184130669, -0.1892, -0.0073, -0.0035,  0.0068,  0.0049, -0.0116
1491431559.5187849998,1491431559.5210769176, -0.1892, -0.0073, -0.0035,  0.0068,  0.0049, -0.0116
1491431559.5214459896,1491431559.5237419605, -0.1892, -0.0077, -0.0038,  0.0077,  0.0044, -0.0110
1491431559.5242259502,1491431559.5265278816, -0.1892, -0.0077, -0.0038,  0.0077,  0.0044, -0.0110
1491431559.5268990993,1491431559.5292038918, -0.1892, -0.0077, -0.0038,  0.0077,  0.0044, -0.0110
1491431559.5297119617,1491431559.5320138931, -0.1892, -0.0077, -0.0038,  0.0077,  0.0044, -0.0110
1491431559.5323839188,1491431559.5348548889, -0.1892, -0.0077, -0.0038,  0.0077,  0.0043, -0.0110
1491431559.5352320671,1491431559.5376598835, -0.1892, -0.0077, -0.0038,  0.0077,  0.0043, -0.0110
1491431559.5380380154,1491431559.5404660702, -0.1892, -0.0077, -0.0038,  0.0077,  0.0043, -0.0110
1491431559.5408439636,1491431559.5432710648, -0.1891, -0.0077, -0.0048,  0.0077,  0.0043, -0.0115
1491431559.5436489582,1491431559.5460329056, -0.1891, -0.0077, -0.0048,  0.0066,  0.0037, -0.0115
1491431559.5464050770,1491431559.5487079620, -0.1891, -0.0077, -0.0048,  0.0066,  0.0037, -0.0115
1491431559.5490789413,1491431559.5513770580, -0.1891, -0.0077, -0.0048,  0.0066,  0.0037, -0.0115
1491431559.5517470837,1491431559.5540490150, -0.1891, -0.0077, -0.0048,  0.0066,  0.0045, -0.0121
1491431559.5544860363,1491431559.5569059849, -0.1891, -0.0077, -0.0048,  0.0065,  0.0045, -0.0121
1491431559.5572841167,1491431559.5597100258, -0.1891, -0.0077, -0.0048,  0.0065,  0.0045, -0.0121
1491431559.5600891113,1491431559.5625150204, -0.1891, -0.0078, -0.0039,  0.0065,  0.0045, -0.0121
1491431559.5628910065,1491431559.5653250217, -0.1891, -0.0078, -0.0039,  0.0066,  0.0046, -0.0113
1491431559.5657029152,1491431559.5681309700, -0.1891, -0.0078, -0.0039,  0.0066,  0.0046, -0.0113
1491431559.5685091019,1491431559.5709331036, -0.1891, -0.0078, -0.0039,  0.0066,  0.0046, -0.0113
1491431559.5713100433,1491431559.5737359524, -0.1891, -0.0078, -0.0039,  0.0066,  0.0046, -0.0113
1491431559.5742340088,1491431559.5766448975, -0.1891, -0.0078, -0.0039,  0.0063,  0.0044, -0.0117
1491431559.5770220757,1491431559.5794138908, -0.1891, -0.0078, -0.0039,  0.0063,  0.0044, -0.0117
1491431559.5798730850,1491431559.5822761059, -0.1891, -0.0081, -0.0048,  0.0063,  0.0044, -0.0117
1491431559.5826520920,1491431559.5858259201, -0.1889, -0.0081, -0.0048,  0.0059,  0.0043, -0.0121
1491431559.5861990452,1491431559.5884959698, -0.1889, -0.0081, -0.0048,  0.0059,  0.0043, -0.0121
1491431559.5888659954,1491431559.5911719799, -0.1889, -0.0081, -0.0048,  0.0059,  0.0043, -0.0121
1491431559.5915410519,1491431559.5938420296, -0.1889, -0.0081, -0.0048,  0.0059,  0.0043, -0.0121
1491431559.5942220688,1491431559.5966370106, -0.1889, -0.0081, -0.0048,  0.0054,  0.0031, -0.0131
1491431559.5970139503,1491431559.5994279385, -0.1889, -0.0081, -0.0048,  0.0054,  0.0031, -0.0131
1491431559.5998051167,1491431559.6022191048, -0.1889, -0.0076, -0.0035,  0.0054,  0.0031, -0.0131
1491431559.6025960445,1491431559.6050119400, -0.1891, -0.0076, -0.0035,  0.0054,  0.0031, -0.0125
1491431559.6053910255,1491431559.6079249382, -0.1891, -0.0076, -0.0035,  0.0051,  0.0023, -0.0125
1491431559.6082980633,1491431559.6105968952, -0.1891, -0.0076, -0.0035,  0.0051,  0.0023, -0.0125
1491431559.6109681129,1491431559.6132690907, -0.1891, -0.0076, -0.0035,  0.0051,  0.0023, -0.0125
1491431559.6136391163,1491431559.6160719395, -0.1891, -0.0076, -0.0035,  0.0056,  0.0028, -0.0120
1491431559.6164441109,1491431559.6187438965, -0.1891, -0.0076, -0.0035,  0.0056,  0.0028, -0.0120
1491431559.6191151142,1491431559.6214139462, -0.1891, -0.0154, -0.0071,  0.0056,  0.0028, -0.0120
1491431559.6217839718,1491431559.6241788864, -0.1885, -0.0081, -0.0071,  0.0056,  0.0028, -0.0120
1491431559.6245489120,1491431559.6268570423, -0.1885, -0.0081, -0.0071,  0.0056,  0.0019, -0.0126
1491431559.6272270679,1491431559.6295220852, -0.1885, -0.0081, -0.0071,  0.0056,  0.0019, -0.0126
1491431559.6298940182,1491431559.6321890354, -0.1885, -0.0081, -0.0071,  0.0056,  0.0019, -0.0126
1491431559.6325609684,1491431559.6350250244, -0.1885, -0.0081, -0.0071,  0.0056,  0.0019, -0.0126
1491431559.6353960037,1491431559.6376929283, -0.1885, -0.0081, -0.0071,  0.0035,  0.0008, -0.0122
1491431559.6380629539,1491431559.6403670311, -0.1885, -0.0081, -0.0071,  0.0035,  0.0008, -0.0122
1491431559.6407380104,1491431559.6430339813, -0.1898, -0.0079, -0.0032,  0.0035,  0.0008, -0.0122
1491431559.6435239315,1491431559.6459610462, -0.1898, -0.0079, -0.0032,  0.0035,  0.0008, -0.0129
1491431559.6463310719,1491431559.6486339569, -0.1898, -0.0079, -0.0032,  0.0036,  0.0009, -0.0129
1491431559.6490020752,1491431559.6512980461, -0.1898, -0.0079, -0.0032,  0.0036,  0.0009, -0.0129
1491431559.6516671181,1491431559.6539690495, -0.1898, -0.0079, -0.0032,  0.0036,  0.0009, -0.0129
1491431559.6543459892,1491431559.6567759514, -0.1898, -0.0079, -0.0032,  0.0036,  0.0015, -0.0126
1491431559.6571550369,1491431559.6595790386, -0.1898, -0.0079, -0.0032,  0.0041,  0.0015, -0.0126
1491431559.6599569321,1491431559.6623880863, -0.1908, -0.0078, -0.0017,  0.0041,  0.0015, -0.0126
1491431559.6627678871,1491431559.6652090549, -0.1908, -0.0078, -0.0017,  0.0041,  0.0015, -0.0126
1491431559.6655879021,1491431559.6680181026, -0.1908, -0.0078, -0.0017,  0.0041,  0.0016, -0.0125
1491431559.6683959961,1491431559.6708340645, -0.1908, -0.0078, -0.0017,  0.0041,  0.0016, -0.0125
1491431559.6712129116,1491431559.6736381054, -0.1908, -0.0078, -0.0017,  0.0041,  0.0016, -0.0125
1491431559.6740169525,1491431559.6763260365, -0.1908, -0.0078, -0.0017,  0.0041,  0.0016, -0.0125
1491431559.6766970158,1491431559.6790039539, -0.1908, -0.0078, -0.0017,  0.0047,  0.0032, -0.0124
1491431559.6793749332,1491431559.6816771030, -0.1903, -0.0077, -0.0010,  0.0047,  0.0032, -0.0124
1491431559.6820459366,1491431559.6843800545, -0.1903, -0.0077, -0.0010,  0.0047,  0.0032, -0.0124
1491431559.6847569942,1491431559.6871750355, -0.1903, -0.0077, -0.0010,  0.0047,  0.0032, -0.0127
1491431559.6875519753,1491431559.6899650097, -0.1903, -0.0077, -0.0010,  0.0053,  0.0046, -0.0127
1491431559.6903419495,1491431559.6927609444, -0.1903, -0.0077, -0.0010,  0.0053,  0.0046, -0.0127
1491431559.6931378841,1491431559.6955599785, -0.1903, -0.0077, -0.0010,  0.0053,  0.0046, -0.0127
1491431559.6959390640,1491431559.6983509064, -0.1903, -0.0077, -0.0010,  0.0062,  0.0050, -0.0129
1491431559.6987290382,1491431559.7012488842, -0.1903, -0.0077, -0.0016,  0.0062,  0.0050, -0.0129
1491431559.7016301155,1491431559.7040441036, -0.1899, -0.0077, -0.0016,  0.0062,  0.0050, -0.0129
1491431559.7044711113,1491431559.7068870068, -0.1899, -0.0077, -0.0016,  0.0062,  0.0050, -0.0129
1491431559.7072639465,1491431559.7096800804, -0.1899, -0.0077, -0.0016,  0.0063,  0.0055, -0.0134
1491431559.7100551128,1491431559.7124669552, -0.1899, -0.0077, -0.0016,  0.0063,  0.0055, -0.0134
1491431559.7128450871,1491431559.7153060436, -0.1899, -0.0077, -0.0016,  0.0063,  0.0055, -0.0134
1491431559.7156839371,1491431559.7180969715, -0.1899, -0.0077, -0.0016,  0.0063,  0.0055, -0.0129
1491431559.7184739113,1491431559.7208919525, -0.1899, -0.0071, -0.0027,  0.0057,  0.0056, -0.0129
1491431559.7212700844,1491431559.7236809731, -0.1900, -0.0071, -0.0027,  0.0057,  0.0056, -0.0129
1491431559.7240989208,1491431559.7263948917, -0.1900, -0.0071, -0.0027,  0.0057,  0.0056, -0.0129
1491431559.7267649174,1491431559.7290658951, -0.1900, -0.0071, -0.0027,  0.0057,  0.0055, -0.0133
1491431559.7294359207,1491431559.7318890095, -0.1900, -0.0071, -0.0027,  0.0064,  0.0055, -0.0133
1491431559.7322790623,1491431559.7347190380, -0.1900, -0.0071, -0.0027,  0.0064,  0.0055, -0.0133
1491431559.7350950241,1491431559.7373929024, -0.1900, -0.0071, -0.0027,  0.0064,  0.0055, -0.0133
1491431559.7377638817,1491431559.7400619984, -0.1900, -0.0071, -0.0040,  0.0063,  0.0055, -0.0136
1491431559.7404310703,1491431559.7427220345, -0.1900, -0.0074, -0.0040,  0.0063,  0.0055, -0.0136
1491431559.7430920601,1491431559.7455909252, -0.1900, -0.0074, -0.0040,  0.0063,  0.0055, -0.0136
1491431559.7459640503,1491431559.7482609749, -0.1900, -0.0074, -0.0040,  0.0063,  0.0055, -0.0136
1491431559.7486319542,1491431559.7509250641, -0.1900, -0.0074, -0.0040,  0.0061,  0.0050, -0.0134
1491431559.7512950897,1491431559.7535920143, -0.1900, -0.0074, -0.0040,  0.0061,  0.0050, -0.0134
1491431559.7539610863,1491431559.7563450336, -0.1900, -0.0074, -0.0040,  0.0061,  0.0050, -0.0134
1491431559.7567150593,1491431559.7590119839, -0.1900, -0.0074, -0.0040,  0.0061,  0.0050, -0.0134
1491431559.7594978809,1491431559.7617840767, -0.1888, -0.0082, -0.0045,  0.0056,  0.0046, -0.0145
1491431559.7621569633,1491431559.7644929886, -0.1888, -0.0082, -0.0045,  0.0056,  0.0046, -0.0145
1491431559.7648620605,1491431559.7671539783, -0.1888, -0.0082, -0.0045,  0.0056,  0.0046, -0.0145
1491431559.7675230503,1491431559.7698149681, -0.1888, -0.0082, -0.0045,  0.0056,  0.0046, -0.0136
1491431559.7701840401,1491431559.7724809647, -0.1888, -0.0082, -0.0045,  0.0046,  0.0051, -0.0136
1491431559.7728509903,1491431559.7751529217, -0.1888, -0.0082, -0.0045,  0.0046,  0.0051, -0.0136
1491431559.7755229473,1491431559.7778251171, -0.1888, -0.0082, -0.0045,  0.0046,  0.0051, -0.0136
1491431559.7781960964,1491431559.7804958820, -0.1899, -0.0082, -0.0029,  0.0046,  0.0048, -0.0130
1491431559.7808649540,1491431559.7831659317, -0.1899, -0.0082, -0.0029,  0.0055,  0.0048, -0.0130
1491431559.7835350037,1491431559.7859671116, -0.1899, -0.0082, -0.0029,  0.0055,  0.0048, -0.0130
1491431559.7863450050,1491431559.7887680531, -0.1899, -0.0082, -0.0029,  0.0055,  0.0048, -0.0130
1491431559.7891469002,1491431559.7915740013, -0.1899, -0.0082, -0.0029,  0.0063,  0.0045, -0.0134
1491431559.7919509411,1491431559.7943890095, -0.1899, -0.0082, -0.0029,  0.0063,  0.0045, -0.0134
1491431559.7947659492,1491431559.7971899509, -0.1899, -0.0082, -0.0029,  0.0063,  0.0045, -0.0134
1491431559.7975680828,1491431559.7999958992, -0.1899, -0.0086, -0.0038,  0.0063,  0.0045, -0.0134
1491431559.8003740311,1491431559.8028020859, -0.1899, -0.0086, -0.0038,  0.0057,  0.0045, -0.0126
1491431559.8031799793,1491431559.8056180477, -0.1899, -0.0086, -0.0038,  0.0057,  0.0045, -0.0126
1491431559.8059959412,1491431559.8084230423, -0.1899, -0.0086, -0.0038,  0.0057,  0.0045, -0.0126
1491431559.8088009357,1491431559.8112249374, -0.1899, -0.0086, -0.0038,  0.0057,  0.0049, -0.0127
1491431559.8116009235,1491431559.8140261173, -0.1899, -0.0086, -0.0038,  0.0060,  0.0049, -0.0127
1491431559.8144769669,1491431559.8169069290, -0.1899, -0.0086, -0.0038,  0.0060,  0.0049, -0.0127
1491431559.8172860146,1491431559.8197119236, -0.1899, -0.0078, -0.0038,  0.0060,  0.0049, -0.0127
1491431559.8200910091,1491431559.8225159645, -0.1888, -0.0078, -0.0038,  0.0068,  0.0046, -0.0135
1491431559.8228929043,1491431559.8252689838, -0.1888, -0.0078, -0.0038,  0.0068,  0.0046, -0.0135
1491431559.8256399632,1491431559.8279399872, -0.1888, -0.0078, -0.0038,  0.0068,  0.0046, -0.0135
1491431559.8283100128,1491431559.8306100368, -0.1888, -0.0078, -0.0038,  0.0068,  0.0046, -0.0135
1491431559.8309800625,1491431559.8332810402, -0.1888, -0.0078, -0.0038,  0.0058,  0.0050, -0.0134
1491431559.8336510658,1491431559.8360509872, -0.1888, -0.0078, -0.0038,  0.0058,  0.0050, -0.0134
1491431559.8364291191,1491431559.8388431072, -0.1888, -0.0078, -0.0038,  0.0058,  0.0050, -0.0134
1491431559.8392219543,1491431559.8416309357, -0.1895, -0.0077, -0.0032,  0.0058,  0.0050, -0.0131
1491431559.8420081139,1491431559.8444240093, -0.1895, -0.0077, -0.0032,  0.0066,  0.0047, -0.0131
1491431559.8448019028,1491431559.8472130299, -0.1895, -0.0077, -0.0032,  0.0066,  0.0047, -0.0131
1491431559.8475890160,1491431559.8500010967, -0.1895, -0.0077, -0.0032,  0.0066,  0.0047, -0.0131
1491431559.8503758907,1491431559.8527910709, -0.1895, -0.0077, -0.0032,  0.0070,  0.0038, -0.0132
1491431559.8531711102,1491431559.8555750847, -0.1895, -0.0077, -0.0032,  0.0070,  0.0038, -0.0132
1491431559.8559520245,1491431559.8583619595, -0.1895, -0.0077, -0.0032,  0.0070,  0.0038, -0.0132
1491431559.8587410450,1491431559.8611690998, -0.1895, -0.0081, -0.0062,  0.0070,  0.0038, -0.0132
1491431559.8615460396,1491431559.8639719486, -0.1895, -0.0081, -0.0062,  0.0062,  0.0038, -0.0127
1491431559.8643770218,1491431559.8668038845, -0.1895, -0.0081, -0.0062,  0.0062,  0.0038, -0.0127
1491431559.8671820164,1491431559.8696091175, -0.1895, -0.0081, -0.0062,  0.0062,  0.0038, -0.0127
1491431559.8699860573,1491431559.8724169731, -0.1895, -0.0081, -0.0062,  0.0062,  0.0038, -0.0126
1491431559.8727939129,1491431559.8751730919, -0.1895, -0.0081, -0.0062,  0.0059,  0.0038, -0.0126
1491431559.8756558895,1491431559.8779621124, -0.1895, -0.0081, -0.0062,  0.0059,  0.0038, -0.0126
1491431559.8783340454,1491431559.8806340694, -0.1894, -0.0085, -0.0034,  0.0059,  0.0038, -0.0126
1491431559.8810029030,1491431559.8833019733, -0.1894, -0.0085, -0.0034,  0.0059,  0.0045, -0.0127
1491431559.8836710453,1491431559.8860130310, -0.1894, -0.0085, -0.0034,  0.0062,  0.0045, -0.0127
1491431559.8863849640,1491431559.8886849880, -0.1894, -0.0085, -0.0034,  0.0062,  0.0045, -0.0127
1491431559.8890559673,1491431559.8913550377, -0.1894, -0.0085, -0.0034,  0.0062,  0.0045, -0.0127
1491431559.8917250633,1491431559.8940250874, -0.1894, -0.0085, -0.0034,  0.0057,  0.0049, -0.0124
1491431559.8944649696,1491431559.8968889713, -0.1894, -0.0085, -0.0034,  0.0057,  0.0049, -0.0124
1491431559.8972640038,1491431559.8996889591, -0.1894, -0.0082, -0.0044,  0.0057,  0.0049, -0.0124
1491431559.9000670910,1491431559.9024930000, -0.1894, -0.0082, -0.0044,  0.0057,  0.0049, -0.0124
1491431559.9028689861,1491431559.9053390026, -0.1894, -0.0082, -0.0044,  0.0058,  0.0048, -0.0123
1491431559.9057168961,1491431559.9081470966, -0.1894, -0.0082, -0.0044,  0.0058,  0.0048, -0.0123
1491431559.9085240364,1491431559.9109489918, -0.1894, -0.0082, -0.0044,  0.0058,  0.0048, -0.0123
1491431559.9113268852,1491431559.9137549400, -0.1894, -0.0082, -0.0044,  0.0058,  0.0048, -0.0125
1491431559.9141418934,1491431559.9165699482, -0.1894, -0.0082, -0.0044,  0.0062,  0.0048, -0.0125
1491431559.9169480801,1491431559.9193730354, -0.1895, -0.0082, -0.0015,  0.0062,  0.0048, -0.0125
1491431559.9197530746,1491431559.9221849442, -0.1895, -0.0082, -0.0015,  0.0062,  0.0048, -0.0125
1491431559.9225630760,1491431559.9249610901, -0.1895, -0.0082, -0.0015,  0.0061,  0.0054, -0.0126
1491431559.9253320694,1491431559.9276340008, -0.1895, -0.0082, -0.0015,  0.0061,  0.0054, -0.0126
1491431559.9280049801,1491431559.9303059578, -0.1895, -0.0082, -0.0015,  0.0061,  0.0054, -0.0126
1491431559.9306778908,1491431559.9329769611, -0.1895, -0.0082, -0.0015,  0.0061,  0.0054, -0.0126
1491431559.9333479404,1491431559.9357650280, -0.1895, -0.0082, -0.0015,  0.0053,  0.0056, -0.0131
1491431559.9361441135,1491431559.9385759830, -0.1895, -0.0004, -0.0045,  0.0053,  0.0056, -0.0131
1491431559.9389541149,1491431559.9413819313, -0.1886, -0.0074, -0.0045,  0.0053,  0.0056, -0.0131
1491431559.9417610168,1491431559.9441990852, -0.1886, -0.0074, -0.0045,  0.0053,  0.0056, -0.0131
1491431559.9445760250,1491431559.9470019341, -0.1886, -0.0074, -0.0045,  0.0053,  0.0052, -0.0130
1491431559.9473791122,1491431559.9498050213, -0.1886, -0.0074, -0.0045,  0.0053,  0.0052, -0.0130
1491431559.9501829147,1491431559.9526109695, -0.1886, -0.0074, -0.0045,  0.0053,  0.0052, -0.0130
1491431559.9529879093,1491431559.9554240704, -0.1886, -0.0074, -0.0045,  0.0053,  0.0049, -0.0134
1491431559.9557991028,1491431559.9582290649, -0.1886, -0.0074, -0.0059,  0.0049,  0.0049, -0.0134
1491431559.9586069584,1491431559.9610259533, -0.1891, -0.0080, -0.0059,  0.0049,  0.0049, -0.0134
1491431559.9614059925,1491431559.9638280869, -0.1891, -0.0080, -0.0059,  0.0049,  0.0049, -0.0134
1491431559.9642150402,1491431559.9666440487, -0.1891, -0.0080, -0.0059,  0.0043,  0.0033, -0.0124
1491431559.9670219421,1491431559.9694550037, -0.1891, -0.0080, -0.0059,  0.0043,  0.0033, -0.0124
1491431559.9698319435,1491431559.9722619057, -0.1891, -0.0080, -0.0059,  0.0043,  0.0033, -0.0124
1491431559.9726400375,1491431559.9750630856, -0.1891, -0.0080, -0.0059,  0.0043,  0.0033, -0.0124
1491431559.9754359722,1491431559.9777369499, -0.1891, -0.0080, -0.0042,  0.0041,  0.0016, -0.0118
1491431559.9781069756,1491431559.9804039001, -0.1891, -0.0079, -0.0042,  0.0041,  0.0016, -0.0118
1491431559.9807739258,1491431559.9830729961, -0.1891, -0.0079, -0.0042,  0.0041,  0.0016, -0.0118
1491431559.9834430218,1491431559.9858489037, -0.1891, -0.0079, -0.0042,  0.0041,  0.0016, -0.0118
1491431559.9862279892,1491431559.9886579514, -0.1891, -0.0079, -0.0042,  0.0046,  0.0005, -0.0118
1491431559.9890360832,1491431559.9914660454, -0.1891, -0.0079, -0.0042,  0.0046,  0.0005, -0.0118
1491431559.9919519424,1491431559.9943919182, -0.1891, -0.0079, -0.0042,  0.0046,  0.0005, -0.0118
1491431559.9947700500,1491431559.9971940517, -0.1891, -0.0079, -0.0042,  0.0043,  0.0001, -0.0121
1491431559.9975728989,1491431559.9999980927, -0.1894, -0.0074, -0.0047,  0.0043,  0.0001, -0.0121
1491431560.0003740788,1491431560.0028049946, -0.1894, -0.0074, -0.0047,  0.0043,  0.0001, -0.0121
1491431560.0031828880,1491431560.0055499077, -0.1894, -0.0074, -0.0047,  0.0043,  0.0001, -0.0121
1491431560.0059230328,1491431560.0082221031, -0.1894, -0.0074, -0.0047,  0.0052,  0.0000, -0.0115
1491431560.0085918903,1491431560.0108990669, -0.1894, -0.0074, -0.0047,  0.0052,  0.0000, -0.0115
1491431560.0112679005,1491431560.0135679245, -0.1894, -0.0074, -0.0047,  0.0052,  0.0000, -0.0115
1491431560.0139379501,1491431560.0163719654, -0.1894, -0.0074, -0.0047,  0.0052,  0.0000, -0.0115
1491431560.0167469978,1491431560.0191729069, -0.1898, -0.0088, -0.0039,  0.0041, -0.0002, -0.0124
1491431560.0195500851,1491431560.0219790936, -0.1898, -0.0088, -0.0039,  0.0041, -0.0002, -0.0124
1491431560.0223560333,1491431560.0247581005, -0.1898, -0.0088, -0.0039,  0.0041, -0.0002, -0.0124
1491431560.0251269341,1491431560.0274279118, -0.1898, -0.0088, -0.0039,  0.0041,  0.0004, -0.0118
1491431560.0277988911,1491431560.0301010609, -0.1898, -0.0088, -0.0039,  0.0010,  0.0004, -0.0118
1491431560.0304720402,1491431560.0327739716, -0.1898, -0.0088, -0.0039,  0.0010,  0.0004, -0.0118
1491431560.0331449509,1491431560.0355939865, -0.1898, -0.0088, -0.0039,  0.0010,  0.0004, -0.0118
1491431560.0359699726,1491431560.0383980274, -0.1895, -0.0069, -0.0057,  0.0022,  0.0008, -0.0112
1491431560.0387749672,1491431560.0412030220, -0.1895, -0.0069, -0.0057,  0.0022,  0.0008, -0.0112
1491431560.0415821075,1491431560.0440039635, -0.1895, -0.0069, -0.0057,  0.0022,  0.0008, -0.0112
1491431560.0444350243,1491431560.0468649864, -0.1895, -0.0069, -0.0057,  0.0022,  0.0008, -0.0112
1491431560.0472419262,1491431560.0496668816, -0.1895, -0.0069, -0.0057,  0.0037, -0.0009, -0.0115
1491431560.0500459671,1491431560.0524671078, -0.1895, -0.0069, -0.0057,  0.0037, -0.0009, -0.0115
1491431560.0528459549,1491431560.0553169250, -0.1895, -0.0069, -0.0057,  0.0037, -0.0009, -0.0115
1491431560.0556941032,1491431560.0581209660, -0.1903, -0.0075, -0.0020,  0.0037, -0.0006, -0.0119
1491431560.0584990978,1491431560.0609250069, -0.1903, -0.0075, -0.0020,  0.0045, -0.0006, -0.0119
1491431560.0613050461,1491431560.0637319088, -0.1903, -0.0075, -0.0020,  0.0045, -0.0006, -0.0119
1491431560.0641179085,1491431560.0665490627, -0.1903, -0.0075, -0.0020,  0.0045, -0.0006, -0.0119
1491431560.0669260025,1491431560.0693550110, -0.1903, -0.0075, -0.0020,  0.0050, -0.0003, -0.0123
1491431560.0697340965,1491431560.0721590519, -0.1903, -0.0075, -0.0020,  0.0050, -0.0003, -0.0123
1491431560.0725359917,1491431560.0749349594, -0.1903, -0.0075, -0.0020,  0.0050, -0.0003, -0.0123
1491431560.0753049850,1491431560.0776090622, -0.1903, -0.0074, -0.0029,  0.0050, -0.0003, -0.0123
1491431560.0779800415,1491431560.0802800655, -0.1888, -0.0074, -0.0029,  0.0052, -0.0007, -0.0124
1491431560.0806500912,1491431560.0829501152, -0.1888, -0.0074, -0.0029,  0.0052, -0.0007, -0.0124
1491431560.0833210945,1491431560.0857520103, -0.1888, -0.0074, -0.0029,  0.0052, -0.0007, -0.0124
1491431560.0861279964,1491431560.0885529518, -0.1888, -0.0074, -0.0029,  0.0052, -0.0007, -0.0121
1491431560.0889289379,1491431560.0913560390, -0.1888, -0.0074, -0.0029,  0.0053, -0.0004, -0.0121
1491431560.0917339325,1491431560.0941710472, -0.1888, -0.0074, -0.0029,  0.0053, -0.0004, -0.0121
1491431560.0945479870,1491431560.0969760418, -0.1888, -0.0074, -0.0019,  0.0053, -0.0004, -0.0121
1491431560.0973539352,1491431560.0997800827, -0.1892, -0.0075, -0.0019,  0.0062,  0.0011, -0.0127
1491431560.1001589298,1491431560.1025850773, -0.1892, -0.0075, -0.0019,  0.0062,  0.0011, -0.0127
1491431560.1029639244,1491431560.1054000854, -0.1892, -0.0075, -0.0019,  0.0062,  0.0011, -0.0127
1491431560.1058781147,1491431560.1083040237, -0.1892, -0.0075, -0.0019,  0.0062,  0.0011, -0.0127
1491431560.1086831093,1491431560.1111071110, -0.1892, -0.0075, -0.0019,  0.0061,  0.0014, -0.0131
1491431560.1114869118,1491431560.1139090061, -0.1892, -0.0075, -0.0019,  0.0061,  0.0014, -0.0131
1491431560.1143190861,1491431560.1167449951, -0.1892, -0.0153, -0.0002,  0.0061,  0.0014, -0.0131
1491431560.1171228886,1491431560.1195509434, -0.1914, -0.0109, -0.0002,  0.0061,  0.0014, -0.0129
1491431560.1199269295,1491431560.1223580837, -0.1914, -0.0109, -0.0002,  0.0023,  0.0028, -0.0129
1491431560.1227340698,1491431560.1251220703, -0.1914, -0.0109, -0.0002,  0.0023,  0.0028, -0.0129
1491431560.1254909039,1491431560.1277949810, -0.1914, -0.0109, -0.0002,  0.0023,  0.0028, -0.0129
1491431560.1281630993,1491431560.1304640770, -0.1914, -0.0109, -0.0002, -0.0064,  0.0056, -0.0123
1491431560.1308329105,1491431560.1331329346, -0.1914, -0.0109, -0.0002, -0.0064,  0.0056, -0.0123
1491431560.1335020065,1491431560.1358420849, -0.1914, -0.0109, -0.0002, -0.0064,  0.0056, -0.0123
1491431560.1362121105,1491431560.1385130882, -0.1895, -0.0080, -0.0021, -0.0064,  0.0056, -0.0123
1491431560.1388840675,1491431560.1411790848, -0.1895, -0.0080, -0.0021, -0.0096,  0.0075, -0.0109
1491431560.1415491104,1491431560.1438479424, -0.1895, -0.0080, -0.0021, -0.0096,  0.0075, -0.0109
1491431560.1442348957,1491431560.1466650963, -0.1895, -0.0080, -0.0021, -0.0096,  0.0075, -0.0109
1491431560.1470429897,1491431560.1494719982, -0.1895, -0.0080, -0.0021, -0.0096,  0.0075, -0.0109
1491431560.1498498917,1491431560.1522760391, -0.1895, -0.0080, -0.0021, -0.0078,  0.0080, -0.0108
1491431560.1526539326,1491431560.1551179886, -0.1895, -0.0080, -0.0021, -0.0078,  0.0080, -0.0108
1491431560.1554958820,1491431560.1579270363, -0.1886, -0.0074, -0.0048, -0.0078,  0.0080, -0.0108
1491431560.1583058834,1491431560.1607279778, -0.1886, -0.0074, -0.0048, -0.0078,  0.0080, -0.0113
1491431560.1611061096,1491431560.1635310650, -0.1886, -0.0074, -0.0048, -0.0066,  0.0080, -0.0113
1491431560.1639099121,1491431560.1663439274, -0.1886, -0.0074, -0.0048, -0.0066,  0.0080, -0.0113
1491431560.1667199135,1491431560.1691460609, -0.1886, -0.0074, -0.0048, -0.0066,  0.0080, -0.0113
1491431560.1695239544,1491431560.1719489098, -0.1886, -0.0074, -0.0048, -0.0061,  0.0081, -0.0115
1491431560.1723260880,1491431560.1747360229, -0.1886, -0.0074, -0.0048, -0.0061,  0.0081, -0.0115
1491431560.1751039028,1491431560.1774060726, -0.1908, -0.0085, -0.0020, -0.0061,  0.0081, -0.0115
1491431560.1777760983,1491431560.1800808907, -0.1908, -0.0085, -0.0020, -0.0061,  0.0081, -0.0115
1491431560.1804521084,1491431560.1827518940, -0.1908, -0.0085, -0.0020, -0.0051,  0.0085, -0.0120
1491431560.1831231117,1491431560.1855440140, -0.1908, -0.0085, -0.0020, -0.0051,  0.0085, -0.0120
1491431560.1859200001,1491431560.1883499622, -0.1908, -0.0085, -0.0020, -0.0051,  0.0085, -0.0120
1491431560.1887280941,1491431560.1911458969, -0.1908, -0.0085, -0.0020, -0.0051,  0.0085, -0.0120
1491431560.1915240288,1491431560.1939539909, -0.1908, -0.0085, -0.0020, -0.0091,  0.0103, -0.0114
1491431560.1943359375,1491431560.1967658997, -0.1899, -0.0070, -0.0051, -0.0091,  0.0103, -0.0114
1491431560.1971430779,1491431560.1995720863, -0.1899, -0.0070, -0.0051, -0.0091,  0.0103, -0.0114
1491431560.1999490261,1491431560.2023780346, -0.1899, -0.0070, -0.0051, -0.0091,  0.0103, -0.0118
1491431560.2027568817,1491431560.2052009106, -0.1899, -0.0070, -0.0051, -0.0085,  0.0103, -0.0118
1491431560.2055768967,1491431560.2079999447, -0.1899, -0.0070, -0.0051, -0.0085,  0.0103, -0.0118
1491431560.2083768845,1491431560.2108049393, -0.1899, -0.0070, -0.0051, -0.0085,  0.0103, -0.0118
1491431560.2111840248,1491431560.2136120796, -0.1899, -0.0070, -0.0051, -0.0041,  0.0090, -0.0123
1491431560.2139890194,1491431560.2164309025, -0.1899, -0.0075, -0.0038, -0.0041,  0.0090, -0.0123
1491431560.2168090343,1491431560.2192349434, -0.1898, -0.0075, -0.0038, -0.0041,  0.0090, -0.0123
1491431560.2196118832,1491431560.2220399380, -0.1898, -0.0075, -0.0038, -0.0041,  0.0090, -0.0123
1491431560.2225248814,1491431560.2249240875, -0.1898, -0.0075, -0.0038, -0.0011,  0.0085, -0.0134
1491431560.2252941132,1491431560.2276020050, -0.1898, -0.0075, -0.0038, -0.0011,  0.0085, -0.0134
1491431560.2279720306,1491431560.2302739620, -0.1898, -0.0075, -0.0038, -0.0011,  0.0085, -0.0134
1491431560.2306439877,1491431560.2329471111, -0.1898, -0.0075, -0.0038, -0.0011,  0.0090, -0.0133
1491431560.2333190441,1491431560.2357709408, -0.1898, -0.0153, -0.0018,  0.0006,  0.0090, -0.0133
1491431560.2361481190,1491431560.2385730743, -0.1908, -0.0083, -0.0018,  0.0006,  0.0090, -0.0133
1491431560.2389519215,1491431560.2413749695, -0.1908, -0.0083, -0.0018,  0.0006,  0.0090, -0.0133
1491431560.2417540550,1491431560.2441890240, -0.1908, -0.0083, -0.0018,  0.0020,  0.0099, -0.0135
1491431560.2445669174,1491431560.2469980717, -0.1908, -0.0083, -0.0018,  0.0020,  0.0099, -0.0135
1491431560.2473769188,1491431560.2498049736, -0.1908, -0.0083, -0.0018,  0.0020,  0.0099, -0.0135
1491431560.2501831055,1491431560.2526080608, -0.1908, -0.0083, -0.0018,  0.0020,  0.0099, -0.0135
1491431560.2529881001,1491431560.2554249763, -0.1908, -0.0083, -0.0021,  0.0039,  0.0106, -0.0132
1491431560.2558019161,1491431560.2582240105, -0.1910, -0.0088, -0.0021,  0.0039,  0.0106, -0.0132
1491431560.2586030960,1491431560.2610290051, -0.1910, -0.0088, -0.0021,  0.0039,  0.0106, -0.0132
1491431560.2614068985,1491431560.2638289928, -0.1910, -0.0088, -0.0021,  0.0039,  0.0106, -0.0119
1491431560.2642149925,1491431560.2666459084, -0.1910, -0.0088, -0.0021,  0.0044,  0.0114, -0.0119
1491431560.2670218945,1491431560.2694509029, -0.1910, -0.0088, -0.0021,  0.0044,  0.0114, -0.0119
1491431560.2698290348,1491431560.2722609043, -0.1910, -0.0088, -0.0021,  0.0044,  0.0114, -0.0119
1491431560.2726390362,1491431560.2750809193, -0.1910, -0.0088, -0.0025,  0.0056,  0.0135, -0.0123
1491431560.2754530907,1491431560.2777559757, -0.1912, -0.0102, -0.0025,  0.0056,  0.0135, -0.0123
1491431560.2781260014,1491431560.2804319859, -0.1912, -0.0102, -0.0025,  0.0056,  0.0135, -0.0123
1491431560.2808020115,1491431560.2830998898, -0.1912, -0.0102, -0.0025,  0.0056,  0.0135, -0.0123
1491431560.2834689617,1491431560.2858250141, -0.1912, -0.0102, -0.0025,  0.0064,  0.0152, -0.0100
1491431560.2861959934,1491431560.2884960175, -0.1912, -0.0102, -0.0025,  0.0064,  0.0152, -0.0100
1491431560.2888660431,1491431560.2911660671, -0.1912, -0.0102, -0.0025,  0.0064,  0.0152, -0.0100
1491431560.2915360928,1491431560.2938339710, -0.1912, -0.0102, -0.0025,  0.0064,  0.0152, -0.0100
1491431560.2942190170,1491431560.2966461182, -0.1920, -0.0102, -0.0009,  0.0066,  0.0172, -0.0085
1491431560.2970230579,1491431560.2994480133, -0.1920, -0.0102, -0.0009,  0.0066,  0.0172, -0.0085
1491431560.2998259068,1491431560.3022499084, -0.1920, -0.0102, -0.0009,  0.0066,  0.0172, -0.0085
1491431560.3026270866,1491431560.3050999641, -0.1920, -0.0102, -0.0009,  0.0066,  0.0187, -0.0068
1491431560.3054769039,1491431560.3079059124, -0.1920, -0.0102, -0.0009,  0.0049,  0.0187, -0.0068
1491431560.3082830906,1491431560.3107089996, -0.1920, -0.0102, -0.0009,  0.0049,  0.0187, -0.0068
1491431560.3110859394,1491431560.3135130405, -0.1920, -0.0102, -0.0009,  0.0049,  0.0187, -0.0068
1491431560.3138899803,1491431560.3163280487, -0.1915, -0.0096, -0.0026,  0.0032,  0.0195, -0.0051
1491431560.3167049885,1491431560.3191330433, -0.1915, -0.0096, -0.0026,  0.0032,  0.0195, -0.0051
1491431560.3195109367,1491431560.3219430447, -0.1915, -0.0096, -0.0026,  0.0032,  0.0195, -0.0051
1491431560.3223209381,1491431560.3247270584, -0.1915, -0.0096, -0.0026,  0.0032,  0.0195, -0.0051
1491431560.3250980377,1491431560.3273971081, -0.1915, -0.0096, -0.0026,  0.0014,  0.0219, -0.0034
1491431560.3277680874,1491431560.3300681114, -0.1915, -0.0096, -0.0026,  0.0014,  0.0219, -0.0034
1491431560.3304390907,1491431560.3327360153, -0.1915, -0.0096, -0.0026,  0.0014,  0.0219, -0.0034
1491431560.3331069946,1491431560.3355309963, -0.1930, -0.0088, -0.0022,  0.0014,  0.0219, -0.0039
1491431560.3359079361,1491431560.3383359909, -0.1930, -0.0088, -0.0022,  0.0017,  0.0228, -0.0039
1491431560.3388209343,1491431560.3412470818, -0.1930, -0.0088, -0.0022,  0.0017,  0.0228, -0.0039
1491431560.3416259289,1491431560.3440508842, -0.1930, -0.0088, -0.0022,  0.0017,  0.0228, -0.0039
1491431560.3444728851,1491431560.3468968868, -0.1930, -0.0088, -0.0022,  0.0023,  0.0239, -0.0034
1491431560.3472731113,1491431560.3496971130, -0.1930, -0.0088, -0.0022,  0.0023,  0.0239, -0.0034
1491431560.3500730991,1491431560.3524971008, -0.1930, -0.0088, -0.0022,  0.0023,  0.0239, -0.0034
1491431560.3528740406,1491431560.3553130627, -0.1946, -0.0121, -0.0019,  0.0023,  0.0239, -0.0034
1491431560.3556909561,1491431560.3581209183, -0.1946, -0.0121, -0.0019,  0.0033,  0.0247, -0.0017
1491431560.3584980965,1491431560.3609259129, -0.1946, -0.0121, -0.0019,  0.0033,  0.0247, -0.0017
1491431560.3613059521,1491431560.3637309074, -0.1946, -0.0121, -0.0019,  0.0033,  0.0247, -0.0017
1491431560.3641169071,1491431560.3665769100, -0.1946, -0.0121, -0.0019,  0.0033,  0.0247,  0.0011
1491431560.3669550419,1491431560.3693850040, -0.1946, -0.0121, -0.0019,  0.0039,  0.0257,  0.0011
1491431560.3697640896,1491431560.3721880913, -0.1946, -0.0121, -0.0019,  0.0039,  0.0257,  0.0011
1491431560.3725628853,1491431560.3749608994, -0.2024, -0.0200,  0.0005,  0.0039,  0.0257,  0.0011
1491431560.3753309250,1491431560.3776319027, -0.1977, -0.0200,  0.0005,  0.0051,  0.0274,  0.0075
1491431560.3780009747,1491431560.3803079128, -0.1977, -0.0200,  0.0005,  0.0051,  0.0274,  0.0075
1491431560.3806769848,1491431560.3829751015, -0.1977, -0.0200,  0.0005,  0.0051,  0.0274,  0.0075
1491431560.3833460808,1491431560.3857820034, -0.1977, -0.0200,  0.0005,  0.0051,  0.0274,  0.0075
1491431560.3861589432,1491431560.3885850906, -0.1977, -0.0200,  0.0005,  0.0041,  0.0300,  0.0166
1491431560.3889610767,1491431560.3913879395, -0.1977, -0.0200,  0.0005,  0.0041,  0.0300,  0.0166
1491431560.3917639256,1491431560.3941929340, -0.1977, -0.0122,  0.0002,  0.0041,  0.0300,  0.0166
1491431560.3945710659,1491431560.3969988823, -0.1973, -0.0141,  0.0002,  0.0041,  0.0300,  0.0166
1491431560.3973751068,1491431560.3997979164, -0.1973, -0.0141,  0.0002,  0.0031,  0.0309,  0.0206
1491431560.4001729488,1491431560.4026019573, -0.1973, -0.0141,  0.0002,  0.0031,  0.0309,  0.0206
1491431560.4029788971,1491431560.4054150581, -0.1973, -0.0141,  0.0002,  0.0031,  0.0309,  0.0206
1491431560.4057910442,1491431560.4082159996, -0.1973, -0.0141,  0.0002,  0.0031,  0.0308,  0.0255
1491431560.4085919857,1491431560.4110219479, -0.1973, -0.0141,  0.0002,  0.0056,  0.0308,  0.0255
1491431560.4113979340,1491431560.4138219357, -0.1973, -0.0141, -0.0037,  0.0056,  0.0308,  0.0255
1491431560.4142088890,1491431560.4166419506, -0.2012, -0.0200, -0.0037,  0.0056,  0.0308,  0.0255
1491431560.4170179367,1491431560.4194459915, -0.2012, -0.0200, -0.0037,  0.0040,  0.0309,  0.0307
1491431560.4198229313,1491431560.4222528934, -0.2012, -0.0200, -0.0037,  0.0040,  0.0309,  0.0307
1491431560.4226310253,1491431560.4250559807, -0.2012, -0.0200, -0.0037,  0.0040,  0.0309,  0.0307
1491431560.4254260063,1491431560.4277319908, -0.2012, -0.0200, -0.0037,  0.0040,  0.0309,  0.0307
1491431560.4281001091,1491431560.4304029942, -0.2012, -0.0200, -0.0037, -0.0020,  0.0318,  0.0365
1491431560.4307739735,1491431560.4330799580, -0.2012, -0.0200, -0.0037, -0.0020,  0.0318,  0.0365
1491431560.4334499836,1491431560.4358060360, -0.1998, -0.0151, -0.0001, -0.0020,  0.0318,  0.0365
1491431560.4361810684,1491431560.4385690689, -0.1998, -0.0151, -0.0001, -0.0020,  0.0318,  0.0423
1491431560.4389441013,1491431560.4413340092, -0.1998, -0.0151, -0.0001, -0.0091,  0.0317,  0.0423
1491431560.4417090416,1491431560.4441258907, -0.1998, -0.0151, -0.0001, -0.0091,  0.0317,  0.0423
1491431560.4445049763,1491431560.4469320774, -0.1998, -0.0151, -0.0001, -0.0091,  0.0317,  0.0423
1491431560.4473099709,1491431560.4497311115, -0.1998, -0.0151, -0.0001, -0.0131,  0.0302,  0.0452
1491431560.4501070976,1491431560.4525349140, -0.1998, -0.0151, -0.0001, -0.0131,  0.0302,  0.0452
1491431560.4529109001,1491431560.4553489685, -0.2288, -0.0220, -0.0112, -0.0131,  0.0302,  0.0452
1491431560.4558329582,1491431560.4582560062, -0.2288, -0.0220, -0.0112, -0.0131,  0.0302,  0.0452
1491431560.4586338997,1491431560.4610600471, -0.2288, -0.0220, -0.0112, -0.0115,  0.0219,  0.0576
1491431560.4614369869,1491431560.4638590813, -0.2288, -0.0220, -0.0112, -0.0115,  0.0219,  0.0576
1491431560.4642450809,1491431560.4666659832, -0.2288, -0.0220, -0.0112, -0.0115,  0.0219,  0.0576
1491431560.4670419693,1491431560.4694690704, -0.2288, -0.0220, -0.0112, -0.0115,  0.0140,  0.0806
1491431560.4698450565,1491431560.4722690582, -0.2288, -0.0220, -0.0112,  0.0152,  0.0080,  0.0806
1491431560.4726469517,1491431560.4750659466, -0.2567, -0.0419,  0.0172,  0.0152,  0.0080,  0.0806
1491431560.4754350185,1491431560.4777340889, -0.2567, -0.0419,  0.0172,  0.0152,  0.0080,  0.0806
1491431560.4781041145,1491431560.4804050922, -0.2567, -0.0419,  0.0172,  0.0324,  0.0086,  0.1187
1491431560.4807751179,1491431560.4830760956, -0.2567, -0.0419,  0.0172,  0.0324,  0.0086,  0.1187
1491431560.4834470749,1491431560.4858460426, -0.2567, -0.0419,  0.0172,  0.0324,  0.0086,  0.1187
1491431560.4862229824,1491431560.4886519909, -0.2567, -0.0419,  0.0172,  0.0324,  0.0086,  0.1187
1491431560.4890289307,1491431560.4914560318, -0.2567, -0.0419,  0.0172,  0.0487, -0.0043,  0.1330
1491431560.4918339252,1491431560.4943048954, -0.2268, -0.0300,  0.0099,  0.0487, -0.0043,  0.1330
1491431560.4946839809,1491431560.4971098900, -0.2268, -0.0300,  0.0099,  0.0487, -0.0043,  0.1330
1491431560.4974861145,1491431560.4999148846, -0.2268, -0.0300,  0.0099,  0.0487, -0.0043,  0.1408
1491431560.5002920628,1491431560.5027151108, -0.2268, -0.0300,  0.0099,  0.0549, -0.0041,  0.1411
1491431560.5030930042,1491431560.5055348873, -0.2268, -0.0300,  0.0099,  0.0549, -0.0041,  0.1411
1491431560.5059099197,1491431560.5083351135, -0.2268, -0.0300,  0.0099,  0.0549, -0.0041,  0.1411
1491431560.5087099075,1491431560.5111329556, -0.2268, -0.0300,  0.0099,  0.0549, -0.0012,  0.1415
1491431560.5115129948,1491431560.5139360428, -0.2126, -0.0535,  0.0184,  0.0572, -0.0012,  0.1415
1491431560.5143170357,1491431560.5167379379, -0.2126, -0.0535,  0.0184,  0.0572, -0.0012,  0.1415
1491431560.5171151161,1491431560.5195419788, -0.2126, -0.0535,  0.0184,  0.0572, -0.0012,  0.1415
1491431560.5199201107,1491431560.5223419666, -0.2126, -0.0535,  0.0184,  0.0487,  0.0187,  0.1256
1491431560.5227179527,1491431560.5251030922, -0.2126, -0.0535,  0.0184,  0.0487,  0.0187,  0.1256
1491431560.5254709721,1491431560.5277760029, -0.2126, -0.0535,  0.0184,  0.0487,  0.0187,  0.1256
1491431560.5281450748,1491431560.5304450989, -0.2126, -0.0535,  0.0184,  0.0487,  0.0187,  0.1256
1491431560.5308129787,1491431560.5331130028, -0.2126, -0.0807, -0.0026,  0.0309,  0.0319,  0.1113
1491431560.5334849358,1491431560.5358319283, -0.1812, -0.0807, -0.0026,  0.0309,  0.0319,  0.1113
1491431560.5362010002,1491431560.5384969711, -0.1812, -0.0807, -0.0026,  0.0309,  0.0319,  0.1113
1491431560.5388669968,1491431560.5411629677, -0.1812, -0.0807, -0.0026,  0.0309,  0.0319,  0.0977
1491431560.5415298939,1491431560.5438280106, -0.1812, -0.0807, -0.0026,  0.0136,  0.0362,  0.0977
1491431560.5442030430,1491431560.5466239452, -0.1812, -0.0807, -0.0026,  0.0136,  0.0362,  0.0977
1491431560.5470020771,1491431560.5494279861, -0.1812, -0.0807, -0.0026,  0.0136,  0.0362,  0.0977
1491431560.5498039722,1491431560.5522289276, -0.1812, -0.0807, -0.0026, -0.0020,  0.0248,  0.0830
1491431560.5526039600,1491431560.5550351143, -0.1488, -0.0555, -0.0049, -0.0023,  0.0248,  0.0830
1491431560.5554120541,1491431560.5578379631, -0.1488, -0.0555, -0.0049, -0.0023,  0.0248,  0.0830
1491431560.5582160950,1491431560.5606451035, -0.1488, -0.0555, -0.0049, -0.0023,  0.0248,  0.0830
1491431560.5610229969,1491431560.5634450912, -0.1488, -0.0555, -0.0049, -0.0097,  0.0072,  0.0592
1491431560.5638229847,1491431560.5662519932, -0.1488, -0.0555, -0.0049, -0.0097,  0.0072,  0.0592
1491431560.5666310787,1491431560.5690600872, -0.1488, -0.0555, -0.0049, -0.0097,  0.0072,  0.0592
1491431560.5694360733,1491431560.5718588829, -0.1488, -0.0555, -0.0049, -0.0097,  0.0072,  0.0280
1491431560.5723431110,1491431560.5747539997, -0.1434, -0.0668,  0.0007, -0.0142, -0.0048,  0.0278
1491431560.5751240253,1491431560.5774230957, -0.1434, -0.0668,  0.0007, -0.0142, -0.0048,  0.0278
1491431560.5777919292,1491431560.5800909996, -0.1434, -0.0668,  0.0007, -0.0142, -0.0048,  0.0278
1491431560.5804610252,1491431560.5827620029, -0.1434, -0.0668,  0.0007, -0.0142, -0.0126,  0.0001
1491431560.5831310749,1491431560.5855510235, -0.1434, -0.0668,  0.0007, -0.0204, -0.0135,  0.0001
1491431560.5859270096,1491431560.5883500576, -0.1434, -0.0668,  0.0007, -0.0204, -0.0135,  0.0001
1491431560.5887250900,1491431560.5911529064, -0.1434, -0.0668,  0.0007, -0.0204, -0.0135,  0.0001
1491431560.5915300846,1491431560.5939559937, -0.1472, -0.0729,  0.0020, -0.0284, -0.0157, -0.0212
1491431560.5943338871,1491431560.5967628956, -0.1472, -0.0729,  0.0020, -0.0284, -0.0157, -0.0212
1491431560.5971388817,1491431560.5995659828, -0.1472, -0.0729,  0.0020, -0.0284, -0.0157, -0.0212
1491431560.5999429226,1491431560.6023659706, -0.1472, -0.0729,  0.0020, -0.0284, -0.0157, -0.0212
1491431560.6027429104,1491431560.6051781178, -0.1472, -0.0729,  0.0020, -0.0348, -0.0172, -0.0372
1491431560.6055560112,1491431560.6079790592, -0.1472, -0.0729,  0.0020, -0.0348, -0.0172, -0.0372
1491431560.6083540916,1491431560.6107800007, -0.1472, -0.0729,  0.0020, -0.0348, -0.0172, -0.0372
1491431560.6111569405,1491431560.6135830879, -0.1432, -0.0645,  0.0012, -0.0348, -0.0172, -0.0527
1491431560.6139619350,1491431560.6164069176, -0.1432, -0.0645,  0.0012, -0.0378, -0.0183, -0.0527
1491431560.6167850494,1491431560.6192109585, -0.1432, -0.0645,  0.0012, -0.0378, -0.0183, -0.0527
1491431560.6195890903,1491431560.6220200062, -0.1432, -0.0645,  0.0012, -0.0378, -0.0183, -0.0527
1491431560.6223969460,1491431560.6248130798, -0.1432, -0.0645,  0.0012, -0.0357, -0.0205, -0.0690
1491431560.6251840591,1491431560.6274840832, -0.1432, -0.0645,  0.0012, -0.0357, -0.0205, -0.0690
1491431560.6278529167,1491431560.6301479340, -0.1432, -0.0645,  0.0012, -0.0357, -0.0205, -0.0690
1491431560.6305170059,1491431560.6328198910, -0.1450, -0.0586,  0.0000, -0.0357, -0.0205, -0.0690
1491431560.6331911087,1491431560.6355021000, -0.1450, -0.0586,  0.0000, -0.0320, -0.0235, -0.0848
1491431560.6358718872,1491431560.6381731033, -0.1450, -0.0586,  0.0000, -0.0320, -0.0235, -0.0848
1491431560.6385419369,1491431560.6408419609, -0.1450, -0.0586,  0.0000, -0.0320, -0.0235, -0.0848
1491431560.6412100792,1491431560.6435089111, -0.1450, -0.0586,  0.0000, -0.0320, -0.0235, -0.0848
1491431560.6438760757,1491431560.6463520527, -0.1450, -0.0586,  0.0000, -0.0271, -0.0261, -0.1017
1491431560.6467320919,1491431560.6491570473, -0.1450, -0.0586,  0.0000, -0.0271, -0.0261, -0.1017
1491431560.6495358944,1491431560.6519660950, -0.1450, -0.0579,  0.0024, -0.0271, -0.0261, -0.1017
1491431560.6523420811,1491431560.6547811031, -0.1538, -0.0579,  0.0024, -0.0271, -0.0261, -0.1176
1491431560.6551580429,1491431560.6575889587, -0.1538, -0.0579,  0.0024, -0.0230, -0.0276, -0.1176
1491431560.6579689980,1491431560.6603970528, -0.1538, -0.0579,  0.0024, -0.0230, -0.0276, -0.1176
1491431560.6607739925,1491431560.6632030010, -0.1538, -0.0579,  0.0024, -0.0230, -0.0276, -0.1176
1491431560.6635799408,1491431560.6660170555, -0.1538, -0.0579,  0.0024, -0.0202, -0.0296, -0.1306
1491431560.6663949490,1491431560.6688239574, -0.1538, -0.0579,  0.0024, -0.0202, -0.0296, -0.1306
1491431560.6692008972,1491431560.6716260910, -0.1538, -0.0579, -0.0012, -0.0202, -0.0296, -0.1306
1491431560.6720030308,1491431560.6744189262, -0.1635, -0.0599, -0.0012, -0.0202, -0.0296, -0.1306
1491431560.6747879982,1491431560.6770861149, -0.1635, -0.0599, -0.0012, -0.0205, -0.0326, -0.1418
1491431560.6774559021,1491431560.6797580719, -0.1635, -0.0599, -0.0012, -0.0205, -0.0326, -0.1418
1491431560.6801290512,1491431560.6824328899, -0.1635, -0.0599, -0.0012, -0.0205, -0.0326, -0.1418
1491431560.6828019619,1491431560.6851799488, -0.1635, -0.0599, -0.0012, -0.0205, -0.0326, -0.1496
1491431560.6856560707,1491431560.6880850792, -0.1635, -0.0599, -0.0012, -0.0218, -0.0356, -0.1538
1491431560.6884629726,1491431560.6908869743, -0.1635, -0.0599, -0.0012, -0.0218, -0.0356, -0.1538
1491431560.6912629604,1491431560.6936929226, -0.1738, -0.0522, -0.0012, -0.0218, -0.0356, -0.1538
1491431560.6941099167,1491431560.6965420246, -0.1738, -0.0522, -0.0012, -0.0232, -0.0370, -0.1698
1491431560.6969199181,1491431560.6993460655, -0.1738, -0.0522, -0.0012, -0.0232, -0.0370, -0.1698
1491431560.6997239590,1491431560.7021520138, -0.1738, -0.0522, -0.0012, -0.0232, -0.0370, -0.1698
1491431560.7025270462,1491431560.7049660683, -0.1738, -0.0522, -0.0012, -0.0232, -0.0370, -0.1698
1491431560.7053439617,1491431560.7077720165, -0.1738, -0.0522, -0.0012, -0.0251, -0.0377, -0.1882
1491431560.7081499100,1491431560.7105700970, -0.1738, -0.0522, -0.0012, -0.0251, -0.0377, -0.1882
1491431560.7109460831,1491431560.7133710384, -0.1849, -0.0527,  0.0029, -0.0251, -0.0377, -0.1882
1491431560.7137479782,1491431560.7161839008, -0.1849, -0.0527,  0.0029, -0.0251, -0.0377, -0.2037
1491431560.7165610790,1491431560.7189860344, -0.1849, -0.0527,  0.0029, -0.0285, -0.0360, -0.2037
1491431560.7193639278,1491431560.7217929363, -0.1849, -0.0527,  0.0029, -0.0285, -0.0360, -0.2037
1491431560.7221689224,1491431560.7245879173, -0.1849, -0.0527,  0.0029, -0.0285, -0.0360, -0.2037
1491431560.7249569893,1491431560.7272610664, -0.1849, -0.0527,  0.0029, -0.0311, -0.0345, -0.2139
1491431560.7276310921,1491431560.7299320698, -0.1849, -0.0527,  0.0029, -0.0311, -0.0345, -0.2139
1491431560.7303020954,1491431560.7326040268, -0.1941, -0.0508,  0.0028, -0.0311, -0.0345, -0.2139
1491431560.7329740524,1491431560.7353599072, -0.1941, -0.0508,  0.0028, -0.0311, -0.0345, -0.2139
1491431560.7357370853,1491431560.7381629944, -0.1941, -0.0508,  0.0028, -0.0325, -0.0352, -0.2219
1491431560.7385399342,1491431560.7409660816, -0.1941, -0.0508,  0.0028, -0.0325, -0.0352, -0.2219
1491431560.7413430214,1491431560.7437679768, -0.1941, -0.0508,  0.0028, -0.0325, -0.0352, -0.2219
1491431560.7441520691,1491431560.7465770245, -0.1941, -0.0508,  0.0028, -0.0325, -0.0352, -0.2219
1491431560.7469530106,1491431560.7493820190, -0.1941, -0.0508,  0.0028, -0.0328, -0.0373, -0.2278
1491431560.7497580051,1491431560.7521851063, -0.2025, -0.0485, -0.0014, -0.0328, -0.0373, -0.2278
1491431560.7525620461,1491431560.7550001144, -0.2025, -0.0485, -0.0014, -0.0328, -0.0373, -0.2278
1491431560.7553770542,1491431560.7578070164, -0.2025, -0.0485, -0.0014, -0.0328, -0.0366, -0.2321
1491431560.7581839561,1491431560.7606101036, -0.2025, -0.0485, -0.0014, -0.0354, -0.0366, -0.2321
1491431560.7609870434,1491431560.7634100914, -0.2025, -0.0485, -0.0014, -0.0354, -0.0366, -0.2321
1491431560.7637879848,1491431560.7661249638, -0.2025, -0.0485, -0.0014, -0.0354, -0.0366, -0.2321
1491431560.7664949894,1491431560.7687940598, -0.2025, -0.0485, -0.0014, -0.0388, -0.0347, -0.2352
1491431560.7691628933,1491431560.7714691162, -0.2125, -0.0471,  0.0005, -0.0388, -0.0347, -0.2352
1491431560.7718360424,1491431560.7741630077, -0.2125, -0.0471,  0.0005, -0.0388, -0.0347, -0.2352
1491431560.7745308876,1491431560.7768359184, -0.2125, -0.0471,  0.0005, -0.0388, -0.0347, -0.2352
1491431560.7772049904,1491431560.7795069218, -0.2125, -0.0471,  0.0005, -0.0414, -0.0332, -0.2367
1491431560.7798740864,1491431560.7821760178, -0.2125, -0.0471,  0.0005, -0.0414, -0.0332, -0.2367
1491431560.7825450897,1491431560.7848889828, -0.2125, -0.0471,  0.0005, -0.0414, -0.0332, -0.2367
1491431560.7852559090,1491431560.7875590324, -0.2125, -0.0471,  0.0005, -0.0414, -0.0332, -0.2367
1491431560.7879250050,1491431560.7902240753, -0.2125, -0.0471, -0.0006, -0.0433, -0.0310, -0.2380
1491431560.7905919552,1491431560.7928891182, -0.2170, -0.0448, -0.0006, -0.0433, -0.0310, -0.2380
1491431560.7932579517,1491431560.7956469059, -0.2170, -0.0448, -0.0006, -0.0433, -0.0310, -0.2380
1491431560.7960228920,1491431560.7984540462, -0.2170, -0.0448, -0.0006, -0.0433, -0.0310, -0.2357
1491431560.7988290787,1491431560.8012518883, -0.2170, -0.0448, -0.0006, -0.0467, -0.0304, -0.2357
1491431560.8017370701,1491431560.8041729927, -0.2170, -0.0448, -0.0006, -0.0467, -0.0304, -0.2357
1491431560.8045489788,1491431560.8069770336, -0.2170, -0.0448, -0.0006, -0.0467, -0.0304, -0.2357
1491431560.8073511124,1491431560.8097798824, -0.2170, -0.0448, -0.0006, -0.0505, -0.0314, -0.2346
1491431560.8101561069,1491431560.8125810623, -0.2263, -0.0259, -0.0035, -0.0505, -0.0314, -0.2346
1491431560.8129580021,1491431560.8153901100, -0.2263, -0.0259, -0.0035, -0.0505, -0.0314, -0.2346
1491431560.8157649040,1491431560.8181939125, -0.2263, -0.0259, -0.0035, -0.0505, -0.0314, -0.2346
1491431560.8185689449,1491431560.8209960461, -0.2263, -0.0259, -0.0035, -0.0508, -0.0301, -0.2389
1491431560.8213739395,1491431560.8237988949, -0.2263, -0.0259, -0.0035, -0.0508, -0.0301, -0.2389
1491431560.8241860867,1491431560.8266139030, -0.2263, -0.0259, -0.0035, -0.0508, -0.0301, -0.2389
1491431560.8269898891,1491431560.8294129372, -0.2263, -0.0259, -0.0035, -0.0508, -0.0301, -0.2449
1491431560.8297901154,1491431560.8322169781, -0.2262, -0.0186,  0.0006, -0.0513, -0.0271, -0.2449
1491431560.8325939178,1491431560.8349840641, -0.2262, -0.0186,  0.0006, -0.0513, -0.0271, -0.2449
1491431560.8353528976,1491431560.8376600742, -0.2262, -0.0186,  0.0006, -0.0513, -0.0271, -0.2449
1491431560.8380270004,1491431560.8403298855, -0.2262, -0.0186,  0.0006, -0.0513, -0.0221, -0.2462
1491431560.8406980038,1491431560.8430030346, -0.2262, -0.0186,  0.0006, -0.0508, -0.0221, -0.2462
1491431560.8433709145,1491431560.8457739353, -0.2262, -0.0186,  0.0006, -0.0508, -0.0221, -0.2462
1491431560.8461520672,1491431560.8485829830, -0.2262, -0.0186,  0.0006, -0.0508, -0.0221, -0.2462
1491431560.8489580154,1491431560.8513829708, -0.2254, -0.0140, -0.0031, -0.0511, -0.0183, -0.2396
1491431560.8517599106,1491431560.8541970253, -0.2254, -0.0140, -0.0031, -0.0511, -0.0183, -0.2396
1491431560.8545739651,1491431560.8570010662, -0.2254, -0.0140, -0.0031, -0.0511, -0.0183, -0.2396
1491431560.8573760986,1491431560.8598060608, -0.2254, -0.0140, -0.0031, -0.0511, -0.0183, -0.2396
1491431560.8601820469,1491431560.8626060486, -0.2254, -0.0140, -0.0031, -0.0502, -0.0167, -0.2249
1491431560.8629829884,1491431560.8654279709, -0.2254, -0.0140, -0.0031, -0.0502, -0.0167, -0.2249
1491431560.8658061028,1491431560.8682351112, -0.2254, -0.0140, -0.0031, -0.0502, -0.0167, -0.2249
1491431560.8686120510,1491431560.8710370064, -0.2223, -0.0039, -0.0048, -0.0502, -0.0148, -0.2061
1491431560.8714139462,1491431560.8738410473, -0.2223, -0.0039, -0.0048, -0.0483, -0.0148, -0.2061
1491431560.8742299080,1491431560.8766570091, -0.2223, -0.0039, -0.0048, -0.0483, -0.0148, -0.2061
1491431560.8770329952,1491431560.8794629574, -0.2223, -0.0039, -0.0048, -0.0483, -0.0148, -0.2061
1491431560.8798398972,1491431560.8822669983, -0.2223, -0.0039, -0.0048, -0.0461, -0.0119, -0.1852
1491431560.8826439381,1491431560.8850870132, -0.2223, -0.0039, -0.0048, -0.0461, -0.0119, -0.1852
1491431560.8854570389,1491431560.8877561092, -0.2223, -0.0039, -0.0048, -0.0461, -0.0119, -0.1852
1491431560.8881249428,1491431560.8904240131, -0.2104,  0.0087, -0.0130, -0.0461, -0.0119, -0.1852
1491431560.8907930851,1491431560.8930909634, -0.2104,  0.0087, -0.0130, -0.0452, -0.0096, -0.1643
1491431560.8934619427,1491431560.8957660198, -0.2104,  0.0087, -0.0130, -0.0452, -0.0096, -0.1643
1491431560.8961369991,1491431560.8984351158, -0.2104,  0.0087, -0.0130, -0.0452, -0.0096, -0.1643
1491431560.8988039494,1491431560.9011058807, -0.2104,  0.0087, -0.0130, -0.0452, -0.0096, -0.1409
1491431560.9014770985,1491431560.9037780762, -0.2104,  0.0087, -0.0130, -0.0460, -0.0059, -0.1445
1491431560.9041268826,1491431560.9065558910, -0.2104,  0.0087, -0.0130, -0.0460, -0.0059, -0.1445
1491431560.9069340229,1491431560.9093630314, -0.2104,  0.0165, -0.0257, -0.0460, -0.0059, -0.1445
1491431560.9097409248,1491431560.9121670723, -0.1981,  0.0156, -0.0257, -0.0460, -0.0027, -0.1236
1491431560.9125449657,1491431560.9149839878, -0.1981,  0.0156, -0.0257, -0.0461, -0.0027, -0.1236
1491431560.9153609276,1491431560.9177870750, -0.1981,  0.0156, -0.0257, -0.0461, -0.0027, -0.1236
1491431560.9182710648,1491431560.9206979275, -0.1981,  0.0156, -0.0257, -0.0461, -0.0027, -0.1236
1491431560.9210760593,1491431560.9234960079, -0.1981,  0.0156, -0.0257, -0.0498, -0.0010, -0.1019
1491431560.9238739014,1491431560.9263439178, -0.1981,  0.0156, -0.0257, -0.0498, -0.0010, -0.1019
1491431560.9267210960,1491431560.9291529655, -0.1981,  0.0078, -0.0351, -0.0498, -0.0010, -0.1019
1491431560.9295310974,1491431560.9319570065, -0.1924,  0.0152, -0.0351, -0.0498, -0.0010, -0.1019
1491431560.9323348999,1491431560.9347410202, -0.1924,  0.0152, -0.0351, -0.0616,  0.0010, -0.0783
1491431560.9351119995,1491431560.9374160767, -0.1924,  0.0152, -0.0351, -0.0616,  0.0010, -0.0783
1491431560.9377839565,1491431560.9400870800, -0.1924,  0.0152, -0.0351, -0.0616,  0.0010, -0.0783
1491431560.9404549599,1491431560.9427590370, -0.1924,  0.0152, -0.0351, -0.0616,  0.0010, -0.0539
1491431560.9431281090,1491431560.9455471039, -0.1924,  0.0152, -0.0351, -0.0792,  0.0031, -0.0539
1491431560.9459269047,1491431560.9483499527, -0.1924,  0.0152, -0.0351, -0.0792,  0.0031, -0.0539
1491431560.9487249851,1491431560.9511530399, -0.1851,  0.0333, -0.0325, -0.0792,  0.0031, -0.0539
1491431560.9515290260,1491431560.9539549351, -0.1851,  0.0333, -0.0325, -0.0910,  0.0064, -0.0362
1491431560.9543380737,1491431560.9567620754, -0.1851,  0.0333, -0.0325, -0.0910,  0.0064, -0.0362
1491431560.9571399689,1491431560.9595639706, -0.1851,  0.0333, -0.0325, -0.0910,  0.0064, -0.0362
1491431560.9599409103,1491431560.9623661041, -0.1851,  0.0333, -0.0325, -0.0910,  0.0064, -0.0362
1491431560.9627420902,1491431560.9651820660, -0.1851,  0.0333, -0.0325, -0.0956,  0.0089, -0.0181
1491431560.9655609131,1491431560.9679839611, -0.1851,  0.0333, -0.0325, -0.0956,  0.0089, -0.0181
1491431560.9683609009,1491431560.9707849026, -0.1820,  0.0349, -0.0223, -0.0956,  0.0089, -0.0181
1491431560.9711620808,1491431560.9735879898, -0.1820,  0.0349, -0.0223, -0.0956,  0.0089,  0.0013
1491431560.9739670753,1491431560.9764029980, -0.1820,  0.0349, -0.0223, -0.0954,  0.0084,  0.0013
1491431560.9767799377,1491431560.9792060852, -0.1820,  0.0349, -0.0223, -0.0954,  0.0084,  0.0013
1491431560.9795820713,1491431560.9820070267, -0.1820,  0.0349, -0.0223, -0.0954,  0.0084,  0.0013
1491431560.9823839664,1491431560.9847929478, -0.1820,  0.0349, -0.0223, -0.0919,  0.0086,  0.0228
1491431560.9851629734,1491431560.9874620438, -0.1820,  0.0349, -0.0223, -0.0919,  0.0086,  0.0228
1491431560.9878299236,1491431560.9901289940, -0.1821,  0.0364, -0.0149, -0.0919,  0.0086,  0.0228
1491431560.9904990196,1491431560.9928009510, -0.1821,  0.0364, -0.0149, -0.0919,  0.0086,  0.0228
1491431560.9931700230,1491431560.9955539703, -0.1821,  0.0364, -0.0149, -0.0838,  0.0069,  0.0431
1491431560.9959321022,1491431560.9983589649, -0.1821,  0.0364, -0.0149, -0.0838,  0.0069,  0.0431
1491431560.9987359047,1491431561.0011661053, -0.1821,  0.0364, -0.0149, -0.0838,  0.0069,  0.0431
1491431561.0015430450,1491431561.0039710999, -0.1821,  0.0364, -0.0149, -0.0838,  0.0069,  0.0431
1491431561.0043470860,1491431561.0067770481, -0.1821,  0.0364, -0.0149, -0.0709,  0.0069,  0.0590
1491431561.0071549416,1491431561.0095820427, -0.1820,  0.0319, -0.0132, -0.0709,  0.0069,  0.0590
1491431561.0099589825,1491431561.0123860836, -0.1820,  0.0319, -0.0132, -0.0709,  0.0069,  0.0590
1491431561.0127620697,1491431561.0151920319, -0.1820,  0.0319, -0.0132, -0.0553,  0.0081,  0.0719
1491431561.0155711174,1491431561.0179979801, -0.1820,  0.0319, -0.0132, -0.0583,  0.0081,  0.0719
1491431561.0183761120,1491431561.0208001137, -0.1820,  0.0319, -0.0132, -0.0583,  0.0081,  0.0719
1491431561.0211789608,1491431561.0236060619, -0.1820,  0.0319, -0.0132, -0.0583,  0.0081,  0.0719
1491431561.0239839554,1491431561.0264189243, -0.1820,  0.0319, -0.0132, -0.0453,  0.0121,  0.0811
1491431561.0267961025,1491431561.0292220116, -0.1853,  0.0227, -0.0101, -0.0453,  0.0121,  0.0811
1491431561.0295979977,1491431561.0320270061, -0.1853,  0.0227, -0.0101, -0.0453,  0.0121,  0.0811
1491431561.0324029922,1491431561.0347950459, -0.1853,  0.0227, -0.0101, -0.0453,  0.0121,  0.0811
1491431561.0352709293,1491431561.0375719070, -0.1853,  0.0227, -0.0101, -0.0318,  0.0181,  0.0881
1491431561.0379409790,1491431561.0402369499, -0.1853,  0.0227, -0.0101, -0.0318,  0.0181,  0.0881
1491431561.0406060219,1491431561.0429039001, -0.1853,  0.0227, -0.0101, -0.0318,  0.0181,  0.0881
1491431561.0432739258,1491431561.0456650257, -0.1853,  0.0227, -0.0101, -0.0318,  0.0259,  0.0941
1491431561.0460410118,1491431561.0484709740, -0.2009,  0.0027, -0.0254, -0.0182,  0.0236,  0.0941
1491431561.0488469601,1491431561.0512731075, -0.2020,  0.0027, -0.0254, -0.0182,  0.0236,  0.0941
1491431561.0516500473,1491431561.0541119576, -0.2020,  0.0027, -0.0254, -0.0182,  0.0236,  0.0941
1491431561.0544900894,1491431561.0569128990, -0.2020,  0.0027, -0.0254,  0.0014,  0.0165,  0.1059
1491431561.0572929382,1491431561.0597229004, -0.2020,  0.0027, -0.0254,  0.0014,  0.0165,  0.1059
1491431561.0601019859,1491431561.0625250340, -0.2020,  0.0027, -0.0254,  0.0014,  0.0165,  0.1059
1491431561.0629038811,1491431561.0653450489, -0.2020,  0.0027, -0.0254,  0.0014,  0.0165,  0.1059
1491431561.0657238960,1491431561.0681500435, -0.2020, -0.0845,  0.0196,  0.0923, -0.0081,  0.1305
1491431561.0685279369,1491431561.0709550381, -0.1795, -0.0845,  0.0196,  0.0923, -0.0081,  0.1305
1491431561.0713329315,1491431561.0737600327, -0.1795, -0.0845,  0.0196,  0.0923, -0.0081,  0.1305
1491431561.0741479397,1491431561.0765709877, -0.1795, -0.0845,  0.0196,  0.0923,  0.0310,  0.1184
1491431561.0769479275,1491431561.0793759823, -0.1795, -0.0845,  0.0196,  0.1124,  0.0287,  0.1184
1491431561.0797529221,1491431561.0821740627, -0.1795, -0.0845,  0.0196,  0.1124,  0.0287,  0.1184
1491431561.0825500488,1491431561.0849490166, -0.1795, -0.0845,  0.0196,  0.1124,  0.0287,  0.1184
1491431561.0853180885,1491431561.0876228809, -0.1795, -0.1001,  0.0019,  0.1066,  0.0193,  0.1203
1491431561.0879940987,1491431561.0902950764, -0.2039, -0.0981,  0.0019,  0.1066,  0.0193,  0.1203
1491431561.0906651020,1491431561.0929670334, -0.2039, -0.0981,  0.0019,  0.1066,  0.0193,  0.1203
1491431561.0933380127,1491431561.0957629681, -0.2039, -0.0981,  0.0019,  0.1066,  0.0193,  0.1203
1491431561.0961420536,1491431561.0985689163, -0.2039, -0.0981,  0.0019,  0.1154,  0.0219,  0.1472
1491431561.0989460945,1491431561.1013689041, -0.2039, -0.0981,  0.0019,  0.1154,  0.0219,  0.1472
1491431561.1017448902,1491431561.1041789055, -0.2039, -0.0981,  0.0019,  0.1154,  0.0219,  0.1472
1491431561.1045579910,1491431561.1069869995, -0.2039, -0.0981,  0.0253,  0.1154,  0.0219,  0.1785
1491431561.1073648930,1491431561.1097869873, -0.1665, -0.1298,  0.0264,  0.0764,  0.0147,  0.1739
1491431561.1101629734,1491431561.1125950813, -0.1665, -0.1298,  0.0264,  0.0764,  0.0147,  0.1739
1491431561.1129729748,1491431561.1154899597, -0.1665, -0.1298,  0.0264,  0.0764,  0.0147,  0.1739
1491431561.1158659458,1491431561.1182780266, -0.1665, -0.1298,  0.0264,  0.0388, -0.0179,  0.2055
1491431561.1186521053,1491431561.1210649014, -0.1665, -0.1298,  0.0264,  0.0388, -0.0179,  0.2055
1491431561.1214420795,1491431561.1238520145, -0.1665, -0.1298,  0.0264,  0.0388, -0.0179,  0.2055
1491431561.1242339611,1491431561.1267230511, -0.1665, -0.1298,  0.0264,  0.0388, -0.0179,  0.2055
1491431561.1270990372,1491431561.1295158863, -0.2085, -0.0335, -0.0079,  0.0158, -0.0400,  0.2213
1491431561.1298921108,1491431561.1322989464, -0.2085, -0.0335, -0.0079,  0.0158, -0.0400,  0.2213
1491431561.1326770782,1491431561.1350491047, -0.2085, -0.0335, -0.0079,  0.0158, -0.0400,  0.2213
1491431561.1354711056,1491431561.1377820969, -0.2085, -0.0335, -0.0079,  0.0158, -0.0400,  0.2057
1491431561.1381518841,1491431561.1404550076, -0.2085, -0.0335, -0.0079, -0.0073, -0.0581,  0.2091
1491431561.1408240795,1491431561.1431219578, -0.2085, -0.0335, -0.0079, -0.0073, -0.0581,  0.2091
1491431561.1434929371,1491431561.1459250450, -0.2085, -0.0335, -0.0079, -0.0073, -0.0581,  0.2091
1491431561.1462979317,1491431561.1485950947, -0.2248,  0.0528,  0.0005, -0.0073, -0.0659,  0.1893
1491431561.1489648819,1491431561.1512649059, -0.2248,  0.0528,  0.0005, -0.0069, -0.0669,  0.1893
1491431561.1517429352,1491431561.1540429592, -0.2248,  0.0528,  0.0005, -0.0069, -0.0669,  0.1893
1491431561.1544890404,1491431561.1569230556, -0.2248,  0.0528,  0.0005, -0.0069, -0.0669,  0.1893
1491431561.1573019028,1491431561.1597280502, -0.2248,  0.0528,  0.0005,  0.0086, -0.0530,  0.1609
1491431561.1601030827,1491431561.1625359058, -0.2248,  0.0528,  0.0005,  0.0086, -0.0530,  0.1609
1491431561.1629130840,1491431561.1653559208, -0.2248,  0.0528,  0.0005,  0.0086, -0.0530,  0.1609
1491431561.1657340527,1491431561.1681580544, -0.2129,  0.0074,  0.0045,  0.0086, -0.0530,  0.1609
1491431561.1685349941,1491431561.1709580421, -0.2129,  0.0074,  0.0045,  0.0311, -0.0395,  0.1333
1491431561.1713349819,1491431561.1737580299, -0.2129,  0.0074,  0.0045,  0.0311, -0.0395,  0.1333
1491431561.1741430759,1491431561.1765689850, -0.2129,  0.0074,  0.0045,  0.0311, -0.0395,  0.1333
1491431561.1769471169,1491431561.1793720722, -0.2129,  0.0074,  0.0045,  0.0311, -0.0395,  0.1173
1491431561.1797490120,1491431561.1821730137, -0.2129,  0.0074,  0.0045,  0.0399, -0.0346,  0.1173
1491431561.1825509071,1491431561.1849479675, -0.2129,  0.0074,  0.0045,  0.0399, -0.0346,  0.1173
1491431561.1853189468,1491431561.1876189709, -0.1826, -0.0226, -0.0055,  0.0399, -0.0346,  0.1173
1491431561.1879889965,1491431561.1902859211, -0.1826, -0.0226, -0.0055,  0.0306, -0.0385,  0.1079
1491431561.1906559467,1491431561.1929531097, -0.1826, -0.0226, -0.0055,  0.0306, -0.0385,  0.1079
1491431561.1933219433,1491431561.1957550049, -0.1826, -0.0226, -0.0055,  0.0306, -0.0385,  0.1079
1491431561.1961328983,1491431561.1985580921, -0.1826, -0.0226, -0.0055,  0.0306, -0.0385,  0.1079
1491431561.1989369392,1491431561.2013609409, -0.1826, -0.0226, -0.0055,  0.0148, -0.0444,  0.0996
1491431561.2017381191,1491431561.2041718960, -0.1826, -0.0226, -0.0055,  0.0148, -0.0444,  0.0996
1491431561.2045490742,1491431561.2069671154, -0.1904,  0.0018,  0.0009,  0.0148, -0.0444,  0.0996
1491431561.2073440552,1491431561.2097699642, -0.1884,  0.0018,  0.0009,  0.0148, -0.0444,  0.0996
1491431561.2101469040,1491431561.2125658989, -0.1884,  0.0018,  0.0009,  0.0062, -0.0451,  0.0892
1491431561.2129440308,1491431561.2153789997, -0.1884,  0.0018,  0.0009,  0.0062, -0.0451,  0.0892
1491431561.2157568932,1491431561.2181780338, -0.1884,  0.0018,  0.0009,  0.0062, -0.0451,  0.0892
1491431561.2185549736,1491431561.2209830284, -0.1884,  0.0018,  0.0009,  0.0140, -0.0409,  0.0779
1491431561.2213609219,1491431561.2237849236, -0.1884,  0.0018,  0.0009,  0.0083, -0.0409,  0.0779
1491431561.2241721153,1491431561.2265970707, -0.1884, -0.0000, -0.0010,  0.0083, -0.0409,  0.0779
1491431561.2269749641,1491431561.2293999195, -0.1889, -0.0000, -0.0010,  0.0083, -0.0409,  0.0779
1491431561.2297780514,1491431561.2322020531, -0.1889, -0.0000, -0.0010,  0.0146, -0.0372,  0.0687
1491431561.2325770855,1491431561.2349760532, -0.1889, -0.0000, -0.0010,  0.0146, -0.0372,  0.0687
1491431561.2353460789,1491431561.2376439571, -0.1889, -0.0000, -0.0010,  0.0146, -0.0372,  0.0687
1491431561.2380130291,1491431561.2403090000, -0.1889, -0.0000, -0.0010,  0.0146, -0.0372,  0.0687
1491431561.2406771183,1491431561.2429800034, -0.1889, -0.0000, -0.0010,  0.0105, -0.0363,  0.0596
1491431561.2433500290,1491431561.2457900047, -0.1889, -0.0000,  0.0225,  0.0105, -0.0363,  0.0596
1491431561.2461659908,1491431561.2485909462, -0.1949,  0.0001,  0.0180,  0.0105, -0.0363,  0.0596
1491431561.2489678860,1491431561.2513959408, -0.1949,  0.0001,  0.0180,  0.0105, -0.0363,  0.0457
1491431561.2517719269,1491431561.2542099953, -0.1949,  0.0001,  0.0180,  0.0026, -0.0304,  0.0457
1491431561.2545900345,1491431561.2570140362, -0.1949,  0.0001,  0.0180,  0.0026, -0.0304,  0.0457
1491431561.2573919296,1491431561.2598209381, -0.1949,  0.0001,  0.0180,  0.0026, -0.0304,  0.0457
1491431561.2601969242,1491431561.2626259327, -0.1949,  0.0001,  0.0180, -0.0048, -0.0262,  0.0396
1491431561.2630031109,1491431561.2654330730, -0.1949,  0.0001,  0.0180, -0.0048, -0.0262,  0.0396
1491431561.2659170628,1491431561.2683470249, -0.1902, -0.0072,  0.0051, -0.0048, -0.0262,  0.0396
1491431561.2687249184,1491431561.2711510658, -0.1902, -0.0072,  0.0051, -0.0048, -0.0262,  0.0396
1491431561.2715289593,1491431561.2739539146, -0.1902, -0.0072,  0.0051, -0.0131, -0.0265,  0.0368
1491431561.2743339539,1491431561.2767629623, -0.1902, -0.0072,  0.0051, -0.0131, -0.0265,  0.0368
1491431561.2771389484,1491431561.2795619965, -0.1902, -0.0072,  0.0051, -0.0131, -0.0265,  0.0368
1491431561.2799389362,1491431561.2823650837, -0.1902, -0.0072,  0.0051, -0.0131, -0.0265,  0.0292
1491431561.2827439308,1491431561.2851300240, -0.1902, -0.0072,  0.0051, -0.0137, -0.0258,  0.0292
1491431561.2854979038,1491431561.2877979279, -0.1872, -0.0032, -0.0090, -0.0137, -0.0258,  0.0292
1491431561.2881669998,1491431561.2904689312, -0.1872, -0.0032, -0.0090, -0.0137, -0.0258,  0.0292
1491431561.2908380032,1491431561.2931389809, -0.1872, -0.0032, -0.0090, -0.0076, -0.0246,  0.0221
1491431561.2935080528,1491431561.2959558964, -0.1872, -0.0032, -0.0090, -0.0076, -0.0246,  0.0221
1491431561.2963349819,1491431561.2987639904, -0.1872, -0.0032, -0.0090, -0.0076, -0.0246,  0.0221
1491431561.2991418839,1491431561.3015708923, -0.1872, -0.0032, -0.0090, -0.0076, -0.0246,  0.0221
1491431561.3019490242,1491431561.3043780327, -0.1872, -0.0032, -0.0090, -0.0087, -0.0298,  0.0200
1491431561.3047549725,1491431561.3071780205, -0.1885, -0.0065,  0.0011, -0.0087, -0.0298,  0.0200
1491431561.3075571060,1491431561.3099880219, -0.1885, -0.0065,  0.0011, -0.0087, -0.0298,  0.0200
1491431561.3103671074,1491431561.3127939701, -0.1885, -0.0065,  0.0011, -0.0087, -0.0298,  0.0200
1491431561.3131730556,1491431561.3156089783, -0.1885, -0.0065,  0.0011, -0.0095, -0.0325,  0.0170
1491431561.3159880638,1491431561.3184139729, -0.1885, -0.0065,  0.0011, -0.0095, -0.0325,  0.0170
1491431561.3187930584,1491431561.3212180138, -0.1885, -0.0065,  0.0011, -0.0095, -0.0325,  0.0170
1491431561.3215959072,1491431561.3240270615, -0.1885, -0.0065,  0.0011, -0.0095, -0.0322,  0.0151
1491431561.3244590759,1491431561.3268799782, -0.1920, -0.0128,  0.0140, -0.0082, -0.0322,  0.0151
1491431561.3272569180,1491431561.3296790123, -0.1920, -0.0128,  0.0140, -0.0082, -0.0322,  0.0151
1491431561.3300540447,1491431561.3324799538, -0.1920, -0.0128,  0.0140, -0.0082, -0.0322,  0.0151
1491431561.3328559399,1491431561.3352649212, -0.1920, -0.0128,  0.0140, -0.0079, -0.0311,  0.0167
1491431561.3356349468,1491431561.3379321098, -0.1920, -0.0128,  0.0140, -0.0079, -0.0311,  0.0167
1491431561.3382990360,1491431561.3406009674, -0.1920, -0.0128,  0.0140, -0.0079, -0.0311,  0.0167
1491431561.3409678936,1491431561.3432700634, -0.1920, -0.0128,  0.0140, -0.0079, -0.0311,  0.0167
1491431561.3436388969,1491431561.3460481167, -0.1921, -0.0047,  0.0103, -0.0050, -0.0288,  0.0156
1491431561.3464269638,1491431561.3488659859, -0.1921, -0.0047,  0.0103, -0.0050, -0.0288,  0.0156
1491431561.3492460251,1491431561.3516659737, -0.1921, -0.0047,  0.0103, -0.0050, -0.0288,  0.0156
1491431561.3520441055,1491431561.3545119762, -0.1921, -0.0047,  0.0103, -0.0050, -0.0288,  0.0126
1491431561.3548901081,1491431561.3573210239, -0.1921, -0.0047,  0.0103,  0.0025, -0.0242,  0.0126
1491431561.3576989174,1491431561.3601219654, -0.1921, -0.0047,  0.0103,  0.0025, -0.0242,  0.0126
1491431561.3604979515,1491431561.3629269600, -0.1921, -0.0047,  0.0103,  0.0025, -0.0242,  0.0126
1491431561.3633050919,1491431561.3657419682, -0.1935, -0.0080,  0.0168,  0.0028, -0.0216,  0.0111
1491431561.3661189079,1491431561.3685419559, -0.1935, -0.0080,  0.0168,  0.0028, -0.0216,  0.0111
1491431561.3689200878,1491431561.3713469505, -0.1935, -0.0080,  0.0168,  0.0028, -0.0216,  0.0111
1491431561.3717229366,1491431561.3741569519, -0.1935, -0.0080,  0.0168,  0.0028, -0.0216,  0.0111
1491431561.3745350838,1491431561.3769578934, -0.1935, -0.0080,  0.0168,  0.0052, -0.0165,  0.0094
1491431561.3773369789,1491431561.3797609806, -0.1935, -0.0080,  0.0168,  0.0052, -0.0165,  0.0094
1491431561.3801379204,1491431561.3825631142, -0.1935, -0.0080,  0.0168,  0.0052, -0.0165,  0.0094
1491431561.3830571175,1491431561.3854739666, -0.1924, -0.0084,  0.0198,  0.0052, -0.0115,  0.0071
1491431561.3858430386,1491431561.3881449699, -0.1924, -0.0084,  0.0198,  0.0066, -0.0115,  0.0071
1491431561.3885159492,1491431561.3908181190, -0.1924, -0.0084,  0.0198,  0.0066, -0.0115,  0.0071
1491431561.3911869526,1491431561.3934910297, -0.1924, -0.0084,  0.0198,  0.0066, -0.0115,  0.0071
1491431561.3938620090,1491431561.3961970806, -0.1924, -0.0084,  0.0198,  0.0067, -0.0081,  0.0076
1491431561.3965671062,1491431561.3988618851, -0.1924, -0.0084,  0.0198,  0.0067, -0.0081,  0.0076
1491431561.3992319107,1491431561.4015300274, -0.1924, -0.0084,  0.0198,  0.0067, -0.0081,  0.0076
1491431561.4019000530,1491431561.4042699337, -0.1924, -0.0084,  0.0178,  0.0067, -0.0081,  0.0076
1491431561.4046509266,1491431561.4070758820, -0.1934, -0.0089,  0.0178,  0.0070, -0.0058,  0.0095
1491431561.4074559212,1491431561.4098830223, -0.1934, -0.0089,  0.0178,  0.0070, -0.0058,  0.0095
1491431561.4102609158,1491431561.4126889706, -0.1934, -0.0089,  0.0178,  0.0070, -0.0058,  0.0095
1491431561.4130680561,1491431561.4155399799, -0.1934, -0.0089,  0.0178,  0.0070, -0.0058,  0.0095
1491431561.4159190655,1491431561.4183430672, -0.1934, -0.0089,  0.0178,  0.0072, -0.0034,  0.0097
1491431561.4187219143,1491431561.4211471081, -0.1934, -0.0089,  0.0178,  0.0072, -0.0034,  0.0097
1491431561.4215250015,1491431561.4239590168, -0.1934, -0.0089,  0.0100,  0.0072, -0.0034,  0.0097
1491431561.4243390560,1491431561.4267630577, -0.1902, -0.0081,  0.0123,  0.0072, -0.0044,  0.0100
1491431561.4271409512,1491431561.4295670986, -0.1902, -0.0081,  0.0123,  0.0060, -0.0044,  0.0100
1491431561.4299440384,1491431561.4323699474, -0.1902, -0.0081,  0.0123,  0.0060, -0.0044,  0.0100
1491431561.4327499866,1491431561.4351820946, -0.1902, -0.0081,  0.0123,  0.0060, -0.0044,  0.0100
1491431561.4355580807,1491431561.4379849434, -0.1902, -0.0081,  0.0123,  0.0062, -0.0064,  0.0099
1491431561.4383618832,1491431561.4407880306, -0.1902, -0.0081,  0.0123,  0.0062, -0.0064,  0.0099
1491431561.4411671162,1491431561.4435889721, -0.1902, -0.0081,  0.0123,  0.0062, -0.0064,  0.0099
1491431561.4439680576,1491431561.4462909698, -0.1882, -0.0058,  0.0103,  0.0062, -0.0064,  0.0099
1491431561.4466600418,1491431561.4489591122, -0.1882, -0.0058,  0.0103,  0.0073, -0.0077,  0.0085
1491431561.4493288994,1491431561.4516301155, -0.1882, -0.0058,  0.0103,  0.0073, -0.0077,  0.0085
1491431561.4519999027,1491431561.4544088840, -0.1882, -0.0058,  0.0103,  0.0073, -0.0077,  0.0085
1491431561.4547870159,1491431561.4572091103, -0.1882, -0.0058,  0.0103,  0.0073, -0.0077,  0.0058
1491431561.4575870037,1491431561.4600141048, -0.1882, -0.0058,  0.0103,  0.0059, -0.0091,  0.0058
1491431561.4603910446,1491431561.4628200531, -0.1882, -0.0058,  0.0103,  0.0059, -0.0091,  0.0058
1491431561.4631979465,1491431561.4656310081, -0.1877, -0.0029,  0.0043,  0.0059, -0.0091,  0.0058
1491431561.4660110474,1491431561.4684391022, -0.1877, -0.0029,  0.0043,  0.0058, -0.0111,  0.0036
1491431561.4688160419,1491431561.4712419510, -0.1877, -0.0029,  0.0043,  0.0058, -0.0111,  0.0036
1491431561.4716188908,1491431561.4740419388, -0.1877, -0.0029,  0.0043,  0.0058, -0.0111,  0.0036
1491431561.4744689465,1491431561.4768950939, -0.1877, -0.0029,  0.0043,  0.0058, -0.0111,  0.0036
1491431561.4772729874,1491431561.4797000885, -0.1877, -0.0029,  0.0043,  0.0078, -0.0139,  0.0017
1491431561.4800770283,1491431561.4825029373, -0.1877, -0.0029,  0.0043,  0.0078, -0.0139,  0.0017
1491431561.4828810692,1491431561.4853138924, -0.1894, -0.0024,  0.0115,  0.0078, -0.0139,  0.0017
1491431561.4856939316,1491431561.4881141186, -0.1894, -0.0024,  0.0115,  0.0078, -0.0139,  0.0009
1491431561.4884910583,1491431561.4909150600, -0.1894, -0.0024,  0.0115,  0.0079, -0.0142,  0.0009
1491431561.4912919998,1491431561.4937229156, -0.1894, -0.0024,  0.0115,  0.0079, -0.0142,  0.0009
1491431561.4941079617,1491431561.4964361191, -0.1894, -0.0024,  0.0115,  0.0079, -0.0142,  0.0009
1491431561.4968070984,1491431561.4991059303, -0.1894, -0.0024,  0.0115,  0.0087, -0.0129, -0.0011
1491431561.4995861053,1491431561.5018858910, -0.1894, -0.0024,  0.0115,  0.0087, -0.0129, -0.0011
1491431561.5022559166,1491431561.5045640469, -0.1904, -0.0031,  0.0164,  0.0087, -0.0129, -0.0011
1491431561.5049359798,1491431561.5072379112, -0.1904, -0.0031,  0.0164,  0.0087, -0.0129, -0.0011
1491431561.5076079369,1491431561.5099039078, -0.1904, -0.0031,  0.0164,  0.0110, -0.0105, -0.0027
1491431561.5102739334,1491431561.5125689507, -0.1904, -0.0031,  0.0164,  0.0110, -0.0105, -0.0027
1491431561.5129370689,1491431561.5153360367, -0.1904, -0.0031,  0.0164,  0.0110, -0.0105, -0.0027
1491431561.5157120228,1491431561.5181241035, -0.1904, -0.0031,  0.0164,  0.0110, -0.0105, -0.0027
1491431561.5185010433,1491431561.5209178925, -0.1904, -0.0031,  0.0164,  0.0139, -0.0095, -0.0023
1491431561.5212950706,1491431561.5237009525, -0.1904, -0.0020,  0.0119,  0.0139, -0.0095, -0.0023
1491431561.5240869522,1491431561.5265009403, -0.1892, -0.0020,  0.0119,  0.0139, -0.0095, -0.0023
1491431561.5268781185,1491431561.5292980671, -0.1892, -0.0020,  0.0119,  0.0139, -0.0095, -0.0043
1491431561.5296740532,1491431561.5320839882, -0.1892, -0.0020,  0.0119,  0.0143, -0.0097, -0.0043
1491431561.5324609280,1491431561.5349171162, -0.1892, -0.0020,  0.0119,  0.0143, -0.0097, -0.0043
1491431561.5352940559,1491431561.5376870632, -0.1892, -0.0020,  0.0119,  0.0143, -0.0097, -0.0043
1491431561.5380609035,1491431561.5404551029, -0.1892, -0.0020,  0.0119,  0.0141, -0.0077, -0.0053
1491431561.5408310890,1491431561.5432279110, -0.1892, -0.0020,  0.0177,  0.0141, -0.0077, -0.0053
1491431561.5436060429,1491431561.5459311008, -0.1891, -0.0021,  0.0177,  0.0141, -0.0077, -0.0053
1491431561.5463008881,1491431561.5485949516, -0.1891, -0.0021,  0.0177,  0.0141, -0.0077, -0.0053
1491431561.5489668846,1491431561.5512669086, -0.1891, -0.0021,  0.0177,  0.0150, -0.0058, -0.0058
1491431561.5516378880,1491431561.5539369583, -0.1891, -0.0021,  0.0177,  0.0150, -0.0058, -0.0058
1491431561.5543129444,1491431561.5567409992, -0.1891, -0.0021,  0.0177,  0.0150, -0.0058, -0.0058
1491431561.5571200848,1491431561.5595428944, -0.1891, -0.0021,  0.0177,  0.0150, -0.0058, -0.0058
1491431561.5599219799,1491431561.5623459816, -0.1891, -0.0021,  0.0177,  0.0168, -0.0041, -0.0069
1491431561.5627219677,1491431561.5651578903, -0.1883, -0.0022,  0.0101,  0.0168, -0.0041, -0.0069
1491431561.5655360222,1491431561.5679619312, -0.1883, -0.0022,  0.0101,  0.0168, -0.0041, -0.0069
1491431561.5683400631,1491431561.5707650185, -0.1883, -0.0022,  0.0101,  0.0168, -0.0045, -0.0077
1491431561.5711429119,1491431561.5735650063, -0.1883, -0.0022,  0.0101,  0.0175, -0.0045, -0.0077
1491431561.5739419460,1491431561.5763750076, -0.1883, -0.0022,  0.0101,  0.0175, -0.0045, -0.0077
1491431561.5767540932,1491431561.5791790485, -0.1883, -0.0022,  0.0101,  0.0175, -0.0045, -0.0077
1491431561.5795559883,1491431561.5819830894, -0.1883, -0.0022,  0.0101,  0.0172, -0.0063, -0.0071
1491431561.5823600292,1491431561.5847640038, -0.1884, -0.0032,  0.0110,  0.0172, -0.0063, -0.0071
1491431561.5851349831,1491431561.5874359608, -0.1884, -0.0032,  0.0110,  0.0172, -0.0063, -0.0071
1491431561.5878078938,1491431561.5901069641, -0.1884, -0.0032,  0.0110,  0.0172, -0.0063, -0.0071
1491431561.5904769897,1491431561.5927789211, -0.1884, -0.0032,  0.0110,  0.0165, -0.0080, -0.0084
1491431561.5931489468,1491431561.5955650806, -0.1884, -0.0032,  0.0110,  0.0165, -0.0080, -0.0084
1491431561.5959420204,1491431561.5983629227, -0.1884, -0.0032,  0.0110,  0.0165, -0.0080, -0.0084
1491431561.5987410545,1491431561.6011660099, -0.1884, -0.0032,  0.0110,  0.0165, -0.0080, -0.0080
1491431561.6015439034,1491431561.6039700508, -0.1888, -0.0023,  0.0142,  0.0164, -0.0076, -0.0080
1491431561.6043450832,1491431561.6067709923, -0.1888, -0.0023,  0.0142,  0.0164, -0.0076, -0.0080
1491431561.6071488857,1491431561.6095790863, -0.1888, -0.0023,  0.0142,  0.0164, -0.0076, -0.0080
1491431561.6099579334,1491431561.6123809814, -0.1888, -0.0023,  0.0142,  0.0168, -0.0070, -0.0079
1491431561.6127579212,1491431561.6151928902, -0.1888, -0.0023,  0.0142,  0.0168, -0.0070, -0.0079
1491431561.6156759262,1491431561.6181058884, -0.1888, -0.0023,  0.0142,  0.0168, -0.0070, -0.0079
1491431561.6184859276,1491431561.6209089756, -0.1888, -0.0023,  0.0142,  0.0168, -0.0070, -0.0079
1491431561.6212849617,1491431561.6237099171, -0.1897, -0.0033,  0.0156,  0.0146, -0.0058, -0.0075
1491431561.6240959167,1491431561.6265499592, -0.1897, -0.0033,  0.0156,  0.0146, -0.0058, -0.0075
1491431561.6269280910,1491431561.6293590069, -0.1897, -0.0033,  0.0156,  0.0146, -0.0058, -0.0075
1491431561.6297369003,1491431561.6321649551, -0.1897, -0.0033,  0.0156,  0.0146, -0.0058, -0.0063
1491431561.6325409412,1491431561.6349399090, -0.1897, -0.0033,  0.0156,  0.0124, -0.0055, -0.0063
1491431561.6353089809,1491431561.6376059055, -0.1897, -0.0033,  0.0156,  0.0124, -0.0055, -0.0063
1491431561.6379768848,1491431561.6402750015, -0.1897, -0.0033,  0.0156,  0.0124, -0.0055, -0.0063
1491431561.6406459808,1491431561.6429429054, -0.1901, -0.0042,  0.0213,  0.0142, -0.0033, -0.0045
1491431561.6433110237,1491431561.6456520557, -0.1901, -0.0042,  0.0213,  0.0142, -0.0033, -0.0045
1491431561.6460220814,1491431561.6483190060, -0.1901, -0.0042,  0.0213,  0.0142, -0.0033, -0.0045
1491431561.6486890316,1491431561.6509859562, -0.1901, -0.0042,  0.0213,  0.0142, -0.0033, -0.0045
1491431561.6513550282,1491431561.6536560059, -0.1901, -0.0042,  0.0213,  0.0139, -0.0014, -0.0033
1491431561.6540238857,1491431561.6564619541, -0.1901, -0.0042,  0.0213,  0.0139, -0.0014, -0.0033
1491431561.6568400860,1491431561.6592650414, -0.1901, -0.0042,  0.0213,  0.0139, -0.0014, -0.0033
1491431561.6596429348,1491431561.6620690823, -0.1901, -0.0042,  0.0195,  0.0139, -0.0014, -0.0033
1491431561.6624469757,1491431561.6649289131, -0.1881, -0.0016,  0.0195,  0.0158, -0.0000, -0.0047
1491431561.6653060913,1491431561.6677320004, -0.1881, -0.0016,  0.0195,  0.0158, -0.0000, -0.0047
1491431561.6681089401,1491431561.6705350876, -0.1881, -0.0016,  0.0195,  0.0158, -0.0000, -0.0047
1491431561.6709120274,1491431561.6733360291, -0.1881, -0.0016,  0.0195,  0.0158,  0.0078, -0.0043
1491431561.6737129688,1491431561.6761510372, -0.1881, -0.0016,  0.0195,  0.0179,  0.0014, -0.0043
1491431561.6765289307,1491431561.6789569855, -0.1881, -0.0016,  0.0195,  0.0179,  0.0014, -0.0043
1491431561.6793351173,1491431561.6817579269, -0.1881, -0.0016,  0.0188,  0.0179,  0.0014, -0.0043
1491431561.6821351051,1491431561.6845688820, -0.1894, -0.0033,  0.0188,  0.0161,  0.0023, -0.0034
1491431561.6849470139,1491431561.6873679161, -0.1894, -0.0033,  0.0188,  0.0161,  0.0023, -0.0034
1491431561.6877470016,1491431561.6901710033, -0.1894, -0.0033,  0.0188,  0.0161,  0.0023, -0.0034
1491431561.6905469894,1491431561.6929759979, -0.1894, -0.0033,  0.0188,  0.0161,  0.0023, -0.0034
1491431561.6933519840,1491431561.6957099438, -0.1894, -0.0033,  0.0188,  0.0179,  0.0035, -0.0042
1491431561.6960799694,1491431561.6983759403, -0.1894, -0.0033,  0.0188,  0.0179,  0.0035, -0.0042
1491431561.6987440586,1491431561.7010440826, -0.1894, -0.0033,  0.0188,  0.0179,  0.0035, -0.0042
1491431561.7014141083,1491431561.7037119865, -0.1880, -0.0003,  0.0145,  0.0179,  0.0035, -0.0042
1491431561.7041149139,1491431561.7065389156, -0.1880, -0.0003,  0.0145,  0.0212,  0.0037, -0.0035
1491431561.7069149017,1491431561.7093420029, -0.1880, -0.0003,  0.0145,  0.0212,  0.0037, -0.0035
1491431561.7097198963,1491431561.7121479511, -0.1880, -0.0003,  0.0145,  0.0212,  0.0037, -0.0035
1491431561.7125248909,1491431561.7149589062, -0.1880, -0.0003,  0.0145,  0.0212,  0.0035, -0.0040
1491431561.7153348923,1491431561.7177538872, -0.1880, -0.0003,  0.0145,  0.0194,  0.0035, -0.0040
1491431561.7181320190,1491431561.7205510139, -0.1880, -0.0003,  0.0145,  0.0194,  0.0035, -0.0040
1491431561.7209270000,1491431561.7233550549, -0.1917, -0.0009,  0.0179,  0.0194,  0.0035, -0.0040
1491431561.7237300873,1491431561.7261691093, -0.1917, -0.0009,  0.0179,  0.0197,  0.0034, -0.0045
1491431561.7265450954,1491431561.7289710045, -0.1917, -0.0009,  0.0179,  0.0197,  0.0034, -0.0045
1491431561.7293500900,1491431561.7317769527, -0.1917, -0.0009,  0.0179,  0.0197,  0.0034, -0.0045
1491431561.7322618961,1491431561.7346699238, -0.1917, -0.0009,  0.0179,  0.0197,  0.0034, -0.0045
1491431561.7350399494,1491431561.7373390198, -0.1917, -0.0009,  0.0179,  0.0199,  0.0051, -0.0030
1491431561.7377099991,1491431561.7400100231, -0.1917, -0.0009,  0.0179,  0.0199,  0.0051, -0.0030
1491431561.7403800488,1491431561.7426791191, -0.1899, -0.0017,  0.0153,  0.0199,  0.0051, -0.0030
1491431561.7430489063,1491431561.7455000877, -0.1899, -0.0017,  0.0153,  0.0199,  0.0051, -0.0027
1491431561.7458760738,1491431561.7482740879, -0.1899, -0.0017,  0.0153,  0.0179,  0.0049, -0.0027
1491431561.7486500740,1491431561.7510440350, -0.1899, -0.0017,  0.0153,  0.0179,  0.0049, -0.0027
1491431561.7514209747,1491431561.7539169788, -0.1899, -0.0017,  0.0153,  0.0179,  0.0049, -0.0027
1491431561.7542970181,1491431561.7567050457, -0.1899, -0.0017,  0.0153,  0.0187,  0.0052, -0.0027
1491431561.7570800781,1491431561.7594749928, -0.1899, -0.0017,  0.0153,  0.0187,  0.0052, -0.0027
1491431561.7598500252,1491431561.7622399330, -0.1899, -0.0015,  0.0179,  0.0187,  0.0052, -0.0027
1491431561.7626159191,1491431561.7651751041, -0.1899, -0.0015,  0.0179,  0.0187,  0.0052, -0.0027
1491431561.7655529976,1491431561.7679700851, -0.1899, -0.0015,  0.0179,  0.0196,  0.0066, -0.0017
1491431561.7683470249,1491431561.7707591057, -0.1899, -0.0015,  0.0179,  0.0196,  0.0066, -0.0017
1491431561.7711369991,1491431561.7735519409, -0.1899, -0.0015,  0.0179,  0.0196,  0.0066, -0.0017
1491431561.7739300728,1491431561.7763950825, -0.1899, -0.0015,  0.0179,  0.0196,  0.0144, -0.0009
1491431561.7767720222,1491431561.7791950703, -0.1899, -0.0015,  0.0179,  0.0205,  0.0082, -0.0009
1491431561.7795739174,1491431561.7819969654, -0.1895, -0.0001,  0.0184,  0.0205,  0.0082, -0.0009
1491431561.7823729515,1491431561.7847850323, -0.1895, -0.0001,  0.0184,  0.0205,  0.0082, -0.0009
1491431561.7851550579,1491431561.7874529362, -0.1895, -0.0001,  0.0184,  0.0206,  0.0083, -0.0006
1491431561.7878229618,1491431561.7901170254, -0.1895, -0.0001,  0.0184,  0.0206,  0.0083, -0.0006
1491431561.7904870510,1491431561.7927880287, -0.1895, -0.0001,  0.0184,  0.0206,  0.0083, -0.0006
1491431561.7931580544,1491431561.7955629826, -0.1895, -0.0001,  0.0184,  0.0206,  0.0083, -0.0006
1491431561.7959389687,1491431561.7983610630, -0.1895, -0.0001,  0.0184,  0.0215,  0.0094, -0.0004
1491431561.7987370491,1491431561.8011629581, -0.1895,  0.0007,  0.0160,  0.0215,  0.0094, -0.0004
1491431561.8015410900,1491431561.8039638996, -0.1886,  0.0007,  0.0160,  0.0215,  0.0094, -0.0004
1491431561.8043410778,1491431561.8067688942, -0.1886,  0.0007,  0.0160,  0.0215,  0.0094,  0.0074
1491431561.8071470261,1491431561.8095679283, -0.1886,  0.0007,  0.0160,  0.0223,  0.0103,  0.0001
1491431561.8099451065,1491431561.8123700619, -0.1886,  0.0007,  0.0160,  0.0223,  0.0103,  0.0001
1491431561.8127450943,1491431561.8151829243, -0.1886,  0.0007,  0.0160,  0.0223,  0.0103,  0.0001
1491431561.8155620098,1491431561.8179919720, -0.1886,  0.0007,  0.0160,  0.0226,  0.0106,  0.0001
1491431561.8183689117,1491431561.8207910061, -0.1886, -0.0006,  0.0128,  0.0226,  0.0106,  0.0001
1491431561.8211669922,1491431561.8235909939, -0.1887, -0.0006,  0.0128,  0.0226,  0.0106,  0.0001
1491431561.8239669800,1491431561.8264029026, -0.1887, -0.0006,  0.0128,  0.0226,  0.0106,  0.0001
1491431561.8267788887,1491431561.8291990757, -0.1887, -0.0006,  0.0128,  0.0227,  0.0122,  0.0005
1491431561.8295760155,1491431561.8319981098, -0.1887, -0.0006,  0.0128,  0.0227,  0.0122,  0.0005
1491431561.8323740959,1491431561.8347818851, -0.1887, -0.0006,  0.0128,  0.0227,  0.0122,  0.0005
1491431561.8351500034,1491431561.8374450207, -0.1887, -0.0006,  0.0128,  0.0227,  0.0122,  0.0005
1491431561.8378129005,1491431561.8401119709, -0.1887, -0.0006,  0.0197,  0.0230,  0.0121,  0.0016
1491431561.8404819965,1491431561.8427829742, -0.1905, -0.0011,  0.0197,  0.0230,  0.0121,  0.0016
1491431561.8431520462,1491431561.8455629349, -0.1905, -0.0011,  0.0197,  0.0230,  0.0121,  0.0016
1491431561.8460450172,1491431561.8484649658, -0.1905, -0.0011,  0.0197,  0.0230,  0.0117,  0.0032
1491431561.8488419056,1491431561.8512620926, -0.1905, -0.0011,  0.0197,  0.0265,  0.0117,  0.0032
1491431561.8516380787,1491431561.8541009426, -0.1905, -0.0011,  0.0197,  0.0265,  0.0117,  0.0032
1491431561.8544769287,1491431561.8569099903, -0.1905, -0.0011,  0.0197,  0.0265,  0.0117,  0.0032
1491431561.8572878838,1491431561.8597118855, -0.1905, -0.0011,  0.0119,  0.0288,  0.0119,  0.0041
1491431561.8600909710,1491431561.8625121117, -0.1907,  0.0001,  0.0129,  0.0288,  0.0119,  0.0041
1491431561.8628900051,1491431561.8653299809, -0.1907,  0.0001,  0.0129,  0.0288,  0.0119,  0.0041
1491431561.8657059669,1491431561.8681280613, -0.1907,  0.0001,  0.0129,  0.0288,  0.0119,  0.0041
1491431561.8685040474,1491431561.8709309101, -0.1907,  0.0001,  0.0129,  0.0294,  0.0111,  0.0056
1491431561.8713068962,1491431561.8737289906, -0.1907,  0.0001,  0.0129,  0.0294,  0.0111,  0.0056
1491431561.8741159439,1491431561.8765399456, -0.1907,  0.0001,  0.0129,  0.0294,  0.0111,  0.0056
1491431561.8769190311,1491431561.8793430328, -0.1907,  0.0001,  0.0129,  0.0294,  0.0105,  0.0049
1491431561.8797180653,1491431561.8821458817, -0.1912,  0.0012,  0.0155,  0.0313,  0.0105,  0.0049
1491431561.8825209141,1491431561.8849198818, -0.1912,  0.0012,  0.0155,  0.0313,  0.0105,  0.0049
1491431561.8852910995,1491431561.8875899315, -0.1912,  0.0012,  0.0155,  0.0313,  0.0105,  0.0049
1491431561.8879609108,1491431561.8902549744, -0.1912,  0.0012,  0.0155,  0.0342,  0.0110,  0.0064
1491431561.8906250000,1491431561.8929269314, -0.1912,  0.0012,  0.0155,  0.0342,  0.0110,  0.0064
1491431561.8932960033,1491431561.8956599236, -0.1912,  0.0012,  0.0155,  0.0342,  0.0110,  0.0064
1491431561.8960289955,1491431561.8983259201, -0.1912,  0.0012,  0.0155,  0.0342,  0.0110,  0.0064
1491431561.8986959457,1491431561.9009950161, -0.1916,  0.0026,  0.0158,  0.0351,  0.0110,  0.0058
1491431561.9013650417,1491431561.9036569595, -0.1916,  0.0026,  0.0158,  0.0351,  0.0110,  0.0058
1491431561.9040269852,1491431561.9064600468, -0.1916,  0.0026,  0.0158,  0.0351,  0.0110,  0.0058
1491431561.9068360329,1491431561.9092669487, -0.1916,  0.0026,  0.0158,  0.0351,  0.0110,  0.0058
1491431561.9096429348,1491431561.9120669365, -0.1916,  0.0026,  0.0158,  0.0362,  0.0119,  0.0057
1491431561.9124450684,1491431561.9149169922, -0.1916,  0.0026,  0.0158,  0.0362,  0.0119,  0.0057
1491431561.9152929783,1491431561.9177150726, -0.1916,  0.0026,  0.0158,  0.0362,  0.0119,  0.0057
1491431561.9180910587,1491431561.9205150604, -0.1918,  0.0000,  0.0096,  0.0362,  0.0125,  0.0057
1491431561.9208920002,1491431561.9233169556, -0.1918,  0.0000,  0.0096,  0.0391,  0.0125,  0.0057
1491431561.9236950874,1491431561.9261310101, -0.1918,  0.0000,  0.0096,  0.0391,  0.0125,  0.0057
1491431561.9265079498,1491431561.9289360046, -0.1918,  0.0000,  0.0096,  0.0391,  0.0125,  0.0057
1491431561.9293119907,1491431561.9317378998, -0.1918,  0.0000,  0.0096,  0.0375,  0.0114,  0.0079
1491431561.9321150780,1491431561.9345519543, -0.1918,  0.0000,  0.0096,  0.0375,  0.0114,  0.0079
1491431561.9349279404,1491431561.9373550415, -0.1918,  0.0000,  0.0096,  0.0375,  0.0114,  0.0079
1491431561.9377310276,1491431561.9401590824, -0.1952,  0.0037,  0.0167,  0.0375,  0.0114,  0.0079
1491431561.9405350685,1491431561.9429619312, -0.1952,  0.0037,  0.0167,  0.0412,  0.0116,  0.0073
1491431561.9433379173,1491431561.9456889629, -0.1952,  0.0037,  0.0167,  0.0412,  0.0116,  0.0073
1491431561.9460558891,1491431561.9483621120, -0.1952,  0.0037,  0.0167,  0.0412,  0.0116,  0.0073
1491431561.9487290382,1491431561.9510281086, -0.1952,  0.0037,  0.0167,  0.0412,  0.0116,  0.0092
1491431561.9513978958,1491431561.9536929131, -0.1952,  0.0037,  0.0167,  0.0457,  0.0106,  0.0092
1491431561.9541079998,1491431561.9565370083, -0.1952,  0.0037,  0.0167,  0.0457,  0.0106,  0.0092
1491431561.9569139481,1491431561.9593379498, -0.1952, -0.0041,  0.0187,  0.0457,  0.0106,  0.0092
1491431561.9597148895,1491431561.9621379375, -0.1945, -0.0006,  0.0187,  0.0415,  0.0117,  0.0118
1491431561.9626219273,1491431561.9650530815, -0.1945, -0.0006,  0.0187,  0.0415,  0.0117,  0.0118
1491431561.9654300213,1491431561.9678530693, -0.1945, -0.0006,  0.0187,  0.0415,  0.0117,  0.0118
1491431561.9682281017,1491431561.9706559181, -0.1945, -0.0006,  0.0187,  0.0415,  0.0117,  0.0118
1491431561.9710319042,1491431561.9734580517, -0.1945, -0.0006,  0.0187,  0.0406,  0.0143,  0.0150
1491431561.9738330841,1491431561.9762620926, -0.1945, -0.0006,  0.0187,  0.0406,  0.0143,  0.0150
1491431561.9766390324,1491431561.9790649414, -0.1945, -0.0006,  0.0186,  0.0406,  0.0143,  0.0150
1491431561.9794409275,1491431561.9818689823, -0.1986, -0.0010,  0.0186,  0.0406,  0.0143,  0.0184
1491431561.9822449684,1491431561.9846820831, -0.1986, -0.0010,  0.0186,  0.0428,  0.0166,  0.0184
1491431561.9850521088,1491431561.9873509407, -0.1986, -0.0010,  0.0186,  0.0428,  0.0166,  0.0184
1491431561.9877200127,1491431561.9900209904, -0.1986, -0.0010,  0.0186,  0.0428,  0.0166,  0.0184
1491431561.9903891087,1491431561.9926910400, -0.1986, -0.0010,  0.0186,  0.0428,  0.0199,  0.0239
1491431561.9930610657,1491431561.9954330921, -0.1986, -0.0010,  0.0186,  0.0391,  0.0199,  0.0239
1491431561.9958100319,1491431561.9982349873, -0.1986, -0.0010,  0.0186,  0.0391,  0.0199,  0.0239
1491431561.9986109734,1491431562.0010349751, -0.1986, -0.0029,  0.0185,  0.0391,  0.0199,  0.0239
1491431562.0014109612,1491431562.0038380623, -0.1986, -0.0029,  0.0185,  0.0355,  0.0193,  0.0316
1491431562.0042240620,1491431562.0066559315, -0.1986, -0.0029,  0.0185,  0.0355,  0.0193,  0.0316
1491431562.0070309639,1491431562.0094590187, -0.1986, -0.0029,  0.0185,  0.0355,  0.0193,  0.0316
1491431562.0098359585,1491431562.0122549534, -0.1986, -0.0029,  0.0185,  0.0355,  0.0193,  0.0316
1491431562.0126309395,1491431562.0151069164, -0.1986, -0.0029,  0.0185,  0.0325,  0.0189,  0.0390
1491431562.0154829025,1491431562.0179109573, -0.1986, -0.0029,  0.0185,  0.0325,  0.0189,  0.0390
1491431562.0182878971,1491431562.0207090378, -0.2274, -0.0244,  0.0091,  0.0325,  0.0189,  0.0390
1491431562.0210859776,1491431562.0235190392, -0.2274, -0.0244,  0.0091,  0.0325,  0.0141,  0.0516
1491431562.0238940716,1491431562.0263249874, -0.2274, -0.0244,  0.0091,  0.0320,  0.0141,  0.0516
1491431562.0266990662,1491431562.0291299820, -0.2274, -0.0244,  0.0091,  0.0320,  0.0141,  0.0516
1491431562.0295090675,1491431562.0319380760, -0.2274, -0.0244,  0.0091,  0.0320,  0.0141,  0.0516
1491431562.0323140621,1491431562.0347249508, -0.2274, -0.0244,  0.0091,  0.0206,  0.0291,  0.0746
1491431562.0350921154,1491431562.0373919010, -0.2274, -0.0244,  0.0091,  0.0206,  0.0291,  0.0746
1491431562.0377590656,1491431562.0400619507, -0.2061, -0.0082,  0.0183,  0.0206,  0.0291,  0.0746
1491431562.0404319763,1491431562.0427320004, -0.2061, -0.0082,  0.0183,  0.0206,  0.0291,  0.0746
1491431562.0431029797,1491431562.0455269814, -0.2061, -0.0082,  0.0183,  0.0182,  0.0262,  0.0877
1491431562.0459051132,1491431562.0483229160, -0.2061, -0.0082,  0.0183,  0.0182,  0.0262,  0.0877
1491431562.0487000942,1491431562.0511200428, -0.2061, -0.0082,  0.0183,  0.0182,  0.0262,  0.0877
1491431562.0514969826,1491431562.0539169312, -0.2061, -0.0082,  0.0183,  0.0182,  0.0262,  0.0997
1491431562.0543010235,1491431562.0567278862, -0.2061, -0.0082,  0.0183,  0.0295,  0.0175,  0.0997
1491431562.0571029186,1491431562.0595290661, -0.2199, -0.0105, -0.0004,  0.0295,  0.0175,  0.0997
1491431562.0599060059,1491431562.0623281002, -0.2199, -0.0105, -0.0004,  0.0295,  0.0175,  0.0997
1491431562.0627050400,1491431562.0655789375, -0.2199, -0.0105, -0.0004,  0.0367,  0.0154,  0.1135
1491431562.0659599304,1491431562.0683889389, -0.2199, -0.0105, -0.0004,  0.0367,  0.0154,  0.1135
1491431562.0687670708,1491431562.0711948872, -0.2199, -0.0105, -0.0004,  0.0367,  0.0154,  0.1135
1491431562.0715699196,1491431562.0739951134, -0.2199, -0.0105, -0.0004,  0.0367,  0.0154,  0.1135
1491431562.0744171143,1491431562.0767180920, -0.2199, -0.0105, -0.0004,  0.0443,  0.0049,  0.1278
1491431562.0770881176,1491431562.0793859959, -0.2203, -0.0164, -0.0058,  0.0443,  0.0049,  0.1278
1491431562.0798869133,1491431562.0821890831, -0.2203, -0.0164, -0.0058,  0.0443,  0.0049,  0.1278
1491431562.0825591087,1491431562.0849249363, -0.2203, -0.0164, -0.0058,  0.0443, -0.0030,  0.1424
1491431562.0852959156,1491431562.0875918865, -0.2203, -0.0164, -0.0058,  0.0481, -0.0049,  0.1424
1491431562.0879619122,1491431562.0902578831, -0.2203, -0.0164, -0.0058,  0.0481, -0.0049,  0.1424
1491431562.0906279087,1491431562.0929260254, -0.2203, -0.0164, -0.0058,  0.0481, -0.0049,  0.1424
1491431562.0932960510,1491431562.0957250595, -0.2203, -0.0164, -0.0058,  0.0481, -0.0132,  0.1598
1491431562.0961029530,1491431562.0985269547, -0.2311, -0.0277, -0.0014,  0.0539, -0.0132,  0.1598
1491431562.0989038944,1491431562.1013309956, -0.2311, -0.0277, -0.0014,  0.0539, -0.0132,  0.1598
1491431562.1017100811,1491431562.1041419506, -0.2311, -0.0277, -0.0014,  0.0539, -0.0132,  0.1598
1491431562.1045219898,1491431562.1069469452, -0.2311, -0.0277, -0.0014,  0.0596, -0.0171,  0.1813
1491431562.1073219776,1491431562.1097528934, -0.2311, -0.0277, -0.0014,  0.0596, -0.0171,  0.1813
1491431562.1101319790,1491431562.1125559807, -0.2311, -0.0277, -0.0014,  0.0596, -0.0171,  0.1813
1491431562.1129329205,1491431562.1153759956, -0.2311, -0.0277, -0.0014,  0.0596, -0.0171,  0.2047
1491431562.1157550812,1491431562.1181790829, -0.2233, -0.0197,  0.0094,  0.0661, -0.0270,  0.2058
1491431562.1185560226,1491431562.1209819317, -0.2231, -0.0197,  0.0094,  0.0661, -0.0270,  0.2058
1491431562.1213600636,1491431562.1237850189, -0.2231, -0.0197,  0.0094,  0.0661, -0.0270,  0.2058
1491431562.1241700649,1491431562.1264739037, -0.2231, -0.0197,  0.0094,  0.0817, -0.0470,  0.2336
1491431562.1268429756,1491431562.1291410923, -0.2231, -0.0197,  0.0094,  0.0807, -0.0470,  0.2336
1491431562.1295099258,1491431562.1318070889, -0.2231, -0.0197,  0.0094,  0.0807, -0.0470,  0.2336
1491431562.1321759224,1491431562.1345191002, -0.2231, -0.0197,  0.0094,  0.0807, -0.0470,  0.2336
1491431562.1348879337,1491431562.1371839046, -0.2231, -0.0197,  0.0018,  0.0854, -0.0571,  0.2628
1491431562.1375529766,1491431562.1398539543, -0.2455, -0.0445,  0.0018,  0.0854, -0.0571,  0.2628
1491431562.1402249336,1491431562.1425170898, -0.2455, -0.0445,  0.0018,  0.0854, -0.0571,  0.2628
1491431562.1428859234,1491431562.1452679634, -0.2455, -0.0445,  0.0018,  0.0854, -0.0571,  0.2628
1491431562.1456460953,1491431562.1480689049, -0.2455, -0.0445,  0.0018,  0.0782, -0.0551,  0.2989
1491431562.1484470367,1491431562.1508700848, -0.2455, -0.0445,  0.0018,  0.0782, -0.0551,  0.2989
1491431562.1512460709,1491431562.1536710262, -0.2455, -0.0445,  0.0018,  0.0782, -0.0551,  0.2989
1491431562.1540479660,1491431562.1565179825, -0.2455, -0.0445,  0.0018,  0.0782, -0.0551,  0.3380
1491431562.1568970680,1491431562.1593210697, -0.2585, -0.0219,  0.0287,  0.0745, -0.0593,  0.3419
1491431562.1596970558,1491431562.1621201038, -0.2585, -0.0219,  0.0287,  0.0745, -0.0593,  0.3419
1491431562.1624960899,1491431562.1649329662, -0.2585, -0.0219,  0.0287,  0.0745, -0.0593,  0.3419
1491431562.1653089523,1491431562.1677320004, -0.2585, -0.0219,  0.0287,  0.0667, -0.0646,  0.3756
1491431562.1681079865,1491431562.1705369949, -0.2585, -0.0219,  0.0287,  0.0689, -0.0646,  0.3756
1491431562.1709120274,1491431562.1733369827, -0.2585, -0.0219,  0.0287,  0.0689, -0.0646,  0.3756
1491431562.1737139225,1491431562.1761538982, -0.2585, -0.0219,  0.0287,  0.0689, -0.0646,  0.3756
1491431562.1765298843,1491431562.1789560318, -0.2767,  0.0146,  0.0478,  0.0510, -0.0526,  0.4150
1491431562.1793310642,1491431562.1817510128, -0.2767,  0.0146,  0.0478,  0.0510, -0.0526,  0.4150
1491431562.1821279526,1491431562.1845450401, -0.2767,  0.0146,  0.0478,  0.0510, -0.0526,  0.4150
1491431562.1849150658,1491431562.1872160435, -0.2767,  0.0146,  0.0478,  0.0510, -0.0526,  0.4150
1491431562.1875839233,1491431562.1898829937, -0.2767,  0.0146,  0.0478,  0.0315, -0.0491,  0.4371
1491431562.1902511120,1491431562.1925530434, -0.2767,  0.0146,  0.0478,  0.0315, -0.0491,  0.4371
1491431562.1929221153,1491431562.1953299046, -0.2767,  0.0146,  0.0478,  0.0315, -0.0491,  0.4371
1491431562.1958138943,1491431562.1982369423, -0.2741,  0.0670,  0.0738,  0.0315, -0.0648,  0.4391
1491431562.1986119747,1491431562.2010359764, -0.2741,  0.0670,  0.0738,  0.0301, -0.0666,  0.4391
1491431562.2014110088,1491431562.2038359642, -0.2741,  0.0670,  0.0738,  0.0301, -0.0666,  0.4391
1491431562.2042229176,1491431562.2066450119, -0.2741,  0.0670,  0.0738,  0.0301, -0.0666,  0.4391
1491431562.2070200443,1491431562.2094519138, -0.2741,  0.0670,  0.0738,  0.0394, -0.0642,  0.4302
1491431562.2098269463,1491431562.2122581005, -0.2741,  0.0670,  0.0738,  0.0394, -0.0642,  0.4302
1491431562.2126350403,1491431562.2150979042, -0.2741,  0.0670,  0.0738,  0.0394, -0.0642,  0.4302
1491431562.2154738903,1491431562.2179028988, -0.2775,  0.0463,  0.0576,  0.0394, -0.0642,  0.4302
1491431562.2182779312,1491431562.2207078934, -0.2775,  0.0463,  0.0576,  0.0509, -0.0392,  0.4225
1491431562.2210841179,1491431562.2235078812, -0.2775,  0.0463,  0.0576,  0.0509, -0.0392,  0.4225
1491431562.2238860130,1491431562.2263169289, -0.2775,  0.0463,  0.0576,  0.0509, -0.0392,  0.4225
1491431562.2266929150,1491431562.2291169167, -0.2775,  0.0463,  0.0576,  0.0509, -0.0235,  0.4179
1491431562.2294919491,1491431562.2319180965, -0.2775,  0.0463,  0.0576,  0.0589, -0.0278,  0.4179
1491431562.2322940826,1491431562.2347040176, -0.2775,  0.0463,  0.0576,  0.0589, -0.0278,  0.4179
1491431562.2350709438,1491431562.2373659611, -0.2048,  0.0382,  0.0387,  0.0589, -0.0278,  0.4179
1491431562.2377340794,1491431562.2400341034, -0.2048,  0.0382,  0.0387,  0.0760, -0.0318,  0.3994
1491431562.2404019833,1491431562.2427020073, -0.2048,  0.0382,  0.0387,  0.0760, -0.0318,  0.3994
1491431562.2430710793,1491431562.2454500198, -0.2048,  0.0382,  0.0387,  0.0760, -0.0318,  0.3994
1491431562.2458269596,1491431562.2482540607, -0.2048,  0.0382,  0.0387,  0.0760, -0.0318,  0.3994
1491431562.2486290932,1491431562.2510550022, -0.2048,  0.0382,  0.0387,  0.0947, -0.0402,  0.3701
1491431562.2514309883,1491431562.2538609505, -0.2048,  0.0382,  0.0387,  0.0947, -0.0402,  0.3701
1491431562.2542450428,1491431562.2565400600, -0.2048,  0.0011,  0.0324,  0.0947, -0.0402,  0.3701
1491431562.2569110394,1491431562.2592110634, -0.1515,  0.0011,  0.0324,  0.0947, -0.0402,  0.3701
1491431562.2595810890,1491431562.2618820667, -0.1515,  0.0011,  0.0324,  0.1195, -0.0470,  0.3435
1491431562.2622520924,1491431562.2645559311, -0.1515,  0.0011,  0.0324,  0.1195, -0.0470,  0.3435
1491431562.2649259567,1491431562.2672228813, -0.1515,  0.0011,  0.0324,  0.1195, -0.0470,  0.3435
1491431562.2675940990,1491431562.2698910236, -0.1515,  0.0011,  0.0324,  0.1195, -0.0470,  0.3143
1491431562.2702620029,1491431562.2725579739, -0.1515,  0.0011,  0.0324,  0.1470, -0.0461,  0.3143
1491431562.2729279995,1491431562.2753379345, -0.1515,  0.0011,  0.0324,  0.1470, -0.0461,  0.3143
1491431562.2757160664,1491431562.2781438828, -0.0891,  0.0867,  0.0625,  0.1470, -0.0461,  0.3143
1491431562.2785210609,1491431562.2809500694, -0.0891,  0.0867,  0.0625,  0.1861, -0.0235,  0.2596
1491431562.2813270092,1491431562.2837500572, -0.0891,  0.0867,  0.0625,  0.1873, -0.0235,  0.2596
1491431562.2841360569,1491431562.2864320278, -0.0891,  0.0867,  0.0625,  0.1873, -0.0235,  0.2596
1491431562.2867999077,1491431562.2891030312, -0.0891,  0.0867,  0.0625,  0.1873, -0.0235,  0.2596
1491431562.2894721031,1491431562.2917690277, -0.0891,  0.0867,  0.0625,  0.2387, -0.0087,  0.1444
1491431562.2921390533,1491431562.2945320606, -0.0891,  0.0867,  0.0625,  0.2387, -0.0087,  0.1444
1491431562.2949080467,1491431562.2973330021, -0.0856,  0.0184, -0.0049,  0.2387, -0.0087,  0.1444
1491431562.2977130413,1491431562.3001339436, -0.0856,  0.0184, -0.0049,  0.2387, -0.0087,  0.1444
1491431562.3005120754,1491431562.3029379845, -0.0856,  0.0184, -0.0049,  0.2404, -0.0128,  0.0305
1491431562.3033149242,1491431562.3057529926, -0.0856,  0.0184, -0.0049,  0.2404, -0.0128,  0.0305
1491431562.3061289787,1491431562.3085498810, -0.0856,  0.0184, -0.0049,  0.2404, -0.0128,  0.0305
1491431562.3089280128,1491431562.3113510609, -0.0856,  0.0184, -0.0049,  0.2404, -0.0050, -0.0384
1491431562.3118350506,1491431562.3143069744, -0.0856,  0.0184, -0.0049,  0.2023, -0.0045, -0.0384
1491431562.3146820068,1491431562.3171091080, -0.1270, -0.0237, -0.0005,  0.2023, -0.0045, -0.0384
1491431562.3174860477,1491431562.3199100494, -0.1270, -0.0237, -0.0005,  0.2023, -0.0045, -0.0384
1491431562.3202879429,1491431562.3227159977, -0.1270, -0.0237, -0.0005,  0.1710,  0.0081, -0.0742
1491431562.3230938911,1491431562.3254621029, -0.1270, -0.0237, -0.0005,  0.1710,  0.0081, -0.0742
1491431562.3258340359,1491431562.3281340599, -0.1270, -0.0237, -0.0005,  0.1710,  0.0081, -0.0742
1491431562.3285040855,1491431562.3308019638, -0.1270, -0.0237, -0.0005,  0.1710,  0.0081, -0.0742
1491431562.3311710358,1491431562.3334639072, -0.1270, -0.0237, -0.0005,  0.1319,  0.0144, -0.0948
1491431562.3338320255,1491431562.3362529278, -0.1210, -0.0332, -0.0167,  0.1319,  0.0144, -0.0948
1491431562.3366289139,1491431562.3390560150, -0.1210, -0.0332, -0.0167,  0.1319,  0.0144, -0.0948
1491431562.3394339085,1491431562.3418591022, -0.1210, -0.0332, -0.0167,  0.1319,  0.0144, -0.1093
1491431562.3422360420,1491431562.3447020054, -0.1210, -0.0332, -0.0167,  0.0818,  0.0198, -0.1093
1491431562.3450798988,1491431562.3475039005, -0.1210, -0.0332, -0.0167,  0.0818,  0.0198, -0.1093
1491431562.3478810787,1491431562.3503079414, -0.1210, -0.0332, -0.0167,  0.0818,  0.0198, -0.1093
1491431562.3506870270,1491431562.3531150818, -0.1210, -0.0332, -0.0167,  0.0313,  0.0266, -0.1245
1491431562.3534910679,1491431562.3559279442, -0.1132, -0.0183, -0.0167,  0.0313,  0.0266, -0.1245
1491431562.3563039303,1491431562.3587338924, -0.1125, -0.0183, -0.0167,  0.0313,  0.0266, -0.1245
1491431562.3591110706,1491431562.3615360260, -0.1125, -0.0183, -0.0167,  0.0313,  0.0266, -0.1245
1491431562.3619110584,1491431562.3643479347, -0.1125, -0.0183, -0.0167, -0.0170,  0.0341, -0.1473
1491431562.3647229671,1491431562.3671510220, -0.1125, -0.0183, -0.0167, -0.0170,  0.0341, -0.1473
1491431562.3675279617,1491431562.3699550629, -0.1125, -0.0183, -0.0167, -0.0170,  0.0341, -0.1473
1491431562.3703329563,1491431562.3728289604, -0.1125, -0.0183, -0.0167, -0.0170,  0.0341, -0.1731
1491431562.3732049465,1491431562.3755569458, -0.1125, -0.0059, -0.0063, -0.0608,  0.0443, -0.1731
1491431562.3759291172,1491431562.3782351017, -0.1103, -0.0059, -0.0063, -0.0608,  0.0443, -0.1731
1491431562.3786060810,1491431562.3809089661, -0.1103, -0.0059, -0.0063, -0.0608,  0.0443, -0.1731
1491431562.3812799454,1491431562.3836150169, -0.1103, -0.0059, -0.0063, -0.0999,  0.0527, -0.1982
1491431562.3839850426,1491431562.3863980770, -0.1103, -0.0059, -0.0063, -0.0957,  0.0527, -0.1982
1491431562.3867750168,1491431562.3891890049, -0.1103, -0.0059, -0.0063, -0.0957,  0.0527, -0.1982
1491431562.3895649910,1491431562.3919770718, -0.1103, -0.0059, -0.0063, -0.0957,  0.0527, -0.1982
1491431562.3923559189,1491431562.3947739601, -0.1103, -0.0059, -0.0003, -0.1245,  0.0586, -0.2212
1491431562.3951508999,1491431562.3975579739, -0.1203,  0.0117, -0.0003, -0.1245,  0.0586, -0.2212
1491431562.3979320526,1491431562.4003419876, -0.1203,  0.0117, -0.0003, -0.1245,  0.0586, -0.2212
1491431562.4007179737,1491431562.4031300545, -0.1203,  0.0117, -0.0003, -0.1245,  0.0586, -0.2212
1491431562.4035069942,1491431562.4059391022, -0.1203,  0.0117, -0.0003, -0.1401,  0.0630, -0.2444
1491431562.4063150883,1491431562.4087231159, -0.1203,  0.0117, -0.0003, -0.1401,  0.0630, -0.2444
1491431562.4090991020,1491431562.4115080833, -0.1203,  0.0117, -0.0003, -0.1401,  0.0630, -0.2444
1491431562.4118840694,1491431562.4143021107, -0.1203,  0.0117,  0.0153, -0.1401,  0.0630, -0.2661
1491431562.4146990776,1491431562.4188389778, -0.1269,  0.0360,  0.0092, -0.1441,  0.0654, -0.2661
1491431562.4192230701,1491431562.4215209484, -0.1269,  0.0360,  0.0092, -0.1441,  0.0654, -0.2661
1491431562.4218900204,1491431562.4242160320, -0.1269,  0.0360,  0.0092, -0.1441,  0.0654, -0.2876
1491431562.4245960712,1491431562.4269030094, -0.1269,  0.0360,  0.0092, -0.1456,  0.0644, -0.2876
1491431562.4274079800,1491431562.4297060966, -0.1269,  0.0360,  0.0092, -0.1456,  0.0644, -0.2876
1491431562.4300758839,1491431562.4323749542, -0.1269,  0.0360,  0.0092, -0.1456,  0.0644, -0.2876
1491431562.4327440262,1491431562.4351398945, -0.1347,  0.0526,  0.0184, -0.1378,  0.0646, -0.3096
1491431562.4355089664,1491431562.4378039837, -0.1356,  0.0526,  0.0184, -0.1391,  0.0646, -0.3096
1491431562.4381730556,1491431562.4404630661, -0.1356,  0.0526,  0.0184, -0.1391,  0.0646, -0.3096
1491431562.4408299923,1491431562.4431259632, -0.1356,  0.0526,  0.0184, -0.1391,  0.0646, -0.3096
1491431562.4434928894,1491431562.4458699226, -0.1356,  0.0526,  0.0184, -0.1301,  0.0625, -0.3253
1491431562.4462370872,1491431562.4485359192, -0.1356,  0.0526,  0.0184, -0.1301,  0.0625, -0.3253
1491431562.4489049911,1491431562.4511969090, -0.1356,  0.0526,  0.0184, -0.1301,  0.0625, -0.3253
1491431562.4515650272,1491431562.4538669586, -0.1356,  0.0526,  0.0184, -0.1301,  0.0625, -0.3253
1491431562.4542479515,1491431562.4566719532, -0.1551,  0.0534,  0.0201, -0.1198,  0.0605, -0.3365
1491431562.4570479393,1491431562.4594779015, -0.1551,  0.0534,  0.0201, -0.1198,  0.0605, -0.3365
1491431562.4598550797,1491431562.4622778893, -0.1551,  0.0534,  0.0201, -0.1198,  0.0605, -0.3365
1491431562.4626541138,1491431562.4651238918, -0.1551,  0.0534,  0.0201, -0.1198,  0.0605, -0.3365
1491431562.4655001163,1491431562.4679250717, -0.1551,  0.0534,  0.0201, -0.1042,  0.0566, -0.3410
1491431562.4683020115,1491431562.4707241058, -0.1551,  0.0534,  0.0201, -0.1042,  0.0566, -0.3410
1491431562.4711039066,1491431562.4735269547, -0.1551,  0.0534,  0.0201, -0.1042,  0.0566, -0.3410
1491431562.4739038944,1491431562.4762260914, -0.1780,  0.0541,  0.0288, -0.0885,  0.0526, -0.3442
1491431562.4765949249,1491431562.4788939953, -0.1780,  0.0541,  0.0288, -0.0900,  0.0526, -0.3442
1491431562.4792609215,1491431562.4815618992, -0.1780,  0.0541,  0.0288, -0.0900,  0.0526, -0.3442
1491431562.4819290638,1491431562.4842300415, -0.1780,  0.0541,  0.0288, -0.0900,  0.0526, -0.3442
1491431562.4845991135,1491431562.4868938923, -0.1780,  0.0541,  0.0288, -0.0785,  0.0522, -0.3420
1491431562.4872651100,1491431562.4895620346, -0.1780,  0.0541,  0.0288, -0.0785,  0.0522, -0.3420
1491431562.4899299145,1491431562.4922270775, -0.1780,  0.0541,  0.0288, -0.0785,  0.0522, -0.3420
1491431562.4925940037,1491431562.4949650764, -0.1819,  0.0536,  0.0207, -0.0785,  0.0522, -0.3420
1491431562.4953401089,1491431562.4977691174, -0.1819,  0.0536,  0.0207, -0.0709,  0.0487, -0.3400
1491431562.4981479645,1491431562.5005729198, -0.1819,  0.0536,  0.0207, -0.0709,  0.0487, -0.3400
1491431562.5009489059,1491431562.5033710003, -0.1819,  0.0536,  0.0207, -0.0709,  0.0487, -0.3400
1491431562.5037460327,1491431562.5061900616, -0.1819,  0.0536,  0.0207, -0.0709,  0.0487, -0.3400
1491431562.5065660477,1491431562.5089950562, -0.1819,  0.0536,  0.0207, -0.0678,  0.0468, -0.3427
1491431562.5093719959,1491431562.5118019581, -0.1819,  0.0536,  0.0207, -0.0678,  0.0468, -0.3427
1491431562.5121769905,1491431562.5146191120, -0.1952,  0.0405,  0.0285, -0.0678,  0.0468, -0.3427
1491431562.5149939060,1491431562.5174229145, -0.1952,  0.0405,  0.0285, -0.0678,  0.0441, -0.3459
1491431562.5178020000,1491431562.5202291012, -0.1952,  0.0405,  0.0285, -0.0687,  0.0441, -0.3459
1491431562.5206050873,1491431562.5230329037, -0.1952,  0.0405,  0.0285, -0.0687,  0.0441, -0.3459
1491431562.5234079361,1491431562.5257709026, -0.1952,  0.0405,  0.0285, -0.0687,  0.0441, -0.3459
1491431562.5261399746,1491431562.5284430981, -0.1952,  0.0405,  0.0285, -0.0732,  0.0431, -0.3456
1491431562.5288119316,1491431562.5311129093, -0.1952,  0.0405,  0.0285, -0.0732,  0.0431, -0.3456
1491431562.5314838886,1491431562.5337851048, -0.1952,  0.0339,  0.0257, -0.0732,  0.0431, -0.3456
1491431562.5341379642,1491431562.5364398956, -0.2071,  0.0339,  0.0257, -0.0732,  0.0431, -0.3456
1491431562.5368070602,1491431562.5391070843, -0.2071,  0.0339,  0.0257, -0.0846,  0.0411, -0.3439
1491431562.5394771099,1491431562.5417780876, -0.2071,  0.0339,  0.0257, -0.0846,  0.0411, -0.3439
1491431562.5422620773,1491431562.5445981026, -0.2071,  0.0339,  0.0257, -0.0846,  0.0411, -0.3439
1491431562.5449769497,1491431562.5474030972, -0.2071,  0.0339,  0.0257, -0.0846,  0.0411, -0.3439
1491431562.5477790833,1491431562.5502040386, -0.2071,  0.0339,  0.0257, -0.0887,  0.0397, -0.3476
1491431562.5505790710,1491431562.5530040264, -0.2071,  0.0339,  0.0335, -0.0887,  0.0397, -0.3476
1491431562.5533800125,1491431562.5558230877, -0.2196,  0.0241,  0.0348, -0.0887,  0.0397, -0.3476
1491431562.5562000275,1491431562.5586259365, -0.2196,  0.0241,  0.0348, -0.0966,  0.0367, -0.3510
1491431562.5590019226,1491431562.5614280701, -0.2196,  0.0241,  0.0348, -0.0979,  0.0367, -0.3510
1491431562.5618059635,1491431562.5642330647, -0.2196,  0.0241,  0.0348, -0.0979,  0.0367, -0.3510
1491431562.5646100044,1491431562.5670330524, -0.2196,  0.0241,  0.0348, -0.0979,  0.0367, -0.3510
1491431562.5674080849,1491431562.5698339939, -0.2196,  0.0241,  0.0348, -0.1056,  0.0338, -0.3568
1491431562.5702099800,1491431562.5726280212, -0.2196,  0.0241,  0.0348, -0.1056,  0.0338, -0.3568
1491431562.5730049610,1491431562.5754311085, -0.2265,  0.0205,  0.0432, -0.1056,  0.0338, -0.3568
1491431562.5758090019,1491431562.5782310963, -0.2265,  0.0205,  0.0432, -0.1056,  0.0338, -0.3568
1491431562.5786070824,1491431562.5810310841, -0.2265,  0.0205,  0.0432, -0.1114,  0.0325, -0.3621
1491431562.5814070702,1491431562.5838251114, -0.2265,  0.0205,  0.0432, -0.1114,  0.0325, -0.3621
1491431562.5842099190,1491431562.5865099430, -0.2265,  0.0205,  0.0432, -0.1114,  0.0325, -0.3621
1491431562.5868799686,1491431562.5891749859, -0.2265,  0.0205,  0.0432, -0.1114,  0.0247, -0.3661
1491431562.5895431042,1491431562.5918469429, -0.2265,  0.0205,  0.0432, -0.1172,  0.0307, -0.3661
1491431562.5922160149,1491431562.5945699215, -0.2386,  0.0187,  0.0500, -0.1172,  0.0307, -0.3661
1491431562.5949470997,1491431562.5973739624, -0.2386,  0.0187,  0.0500, -0.1172,  0.0307, -0.3661
1491431562.5977499485,1491431562.6001760960, -0.2386,  0.0187,  0.0500, -0.1192,  0.0288, -0.3689
1491431562.6005539894,1491431562.6029789448, -0.2386,  0.0187,  0.0500, -0.1192,  0.0288, -0.3689
1491431562.6033549309,1491431562.6057860851, -0.2386,  0.0187,  0.0500, -0.1192,  0.0288, -0.3689
1491431562.6061611176,1491431562.6085870266, -0.2386,  0.0187,  0.0500, -0.1192,  0.0288, -0.3689
1491431562.6089649200,1491431562.6113870144, -0.2386,  0.0187,  0.0500, -0.1173,  0.0250, -0.3712
1491431562.6117639542,1491431562.6142029762, -0.2426,  0.0228,  0.0487, -0.1173,  0.0250, -0.3712
1491431562.6145789623,1491431562.6170060635, -0.2426,  0.0228,  0.0487, -0.1173,  0.0250, -0.3712
1491431562.6173820496,1491431562.6198089123, -0.2426,  0.0228,  0.0487, -0.1173,  0.0250, -0.3740
1491431562.6201870441,1491431562.6226069927, -0.2426,  0.0228,  0.0487, -0.1121,  0.0180, -0.3740
1491431562.6229839325,1491431562.6254150867, -0.2426,  0.0228,  0.0487, -0.1121,  0.0180, -0.3740
1491431562.6257901192,1491431562.6282150745, -0.2426,  0.0228,  0.0487, -0.1121,  0.0180, -0.3740
1491431562.6285920143,1491431562.6310179234, -0.2426,  0.0228,  0.0487, -0.1031,  0.0090, -0.3762
1491431562.6313960552,1491431562.6338179111, -0.2475,  0.0229,  0.0439, -0.1031,  0.0090, -0.3762
1491431562.6342039108,1491431562.6365048885, -0.2475,  0.0229,  0.0439, -0.1031,  0.0090, -0.3762
1491431562.6368749142,1491431562.6391780376, -0.2475,  0.0229,  0.0439, -0.1031,  0.0090, -0.3762
1491431562.6395471096,1491431562.6418440342, -0.2475,  0.0229,  0.0439, -0.0928, -0.0002, -0.3780
1491431562.6422140598,1491431562.6445450783, -0.2475,  0.0229,  0.0439, -0.0928, -0.0002, -0.3780
1491431562.6449160576,1491431562.6472129822, -0.2475,  0.0229,  0.0439, -0.0928, -0.0002, -0.3780
1491431562.6475811005,1491431562.6498799324, -0.2475,  0.0229,  0.0439, -0.0928, -0.0002, -0.3780
1491431562.6502480507,1491431562.6525509357, -0.2475,  0.0161,  0.0454, -0.0831, -0.0089, -0.3778
1491431562.6529209614,1491431562.6553609371, -0.2539,  0.0161,  0.0454, -0.0831, -0.0089, -0.3778
1491431562.6557390690,1491431562.6581630707, -0.2539,  0.0161,  0.0454, -0.0831, -0.0089, -0.3778
1491431562.6586480141,1491431562.6610770226, -0.2539,  0.0161,  0.0454, -0.0831, -0.0089, -0.3754
1491431562.6614530087,1491431562.6638751030, -0.2539,  0.0161,  0.0454, -0.0746, -0.0163, -0.3754
1491431562.6642549038,1491431562.6666879654, -0.2539,  0.0161,  0.0454, -0.0746, -0.0163, -0.3754
1491431562.6670660973,1491431562.6694951057, -0.2539,  0.0161,  0.0454, -0.0746, -0.0163, -0.3754
1491431562.6698698997,1491431562.6722989082, -0.2539,  0.0161,  0.0439, -0.0647, -0.0218, -0.3700
1491431562.6726729870,1491431562.6751089096, -0.2599,  0.0182,  0.0439, -0.0647, -0.0218, -0.3700
1491431562.6754870415,1491431562.6779139042, -0.2599,  0.0182,  0.0439, -0.0647, -0.0218, -0.3700
1491431562.6782879829,1491431562.6807188988, -0.2599,  0.0182,  0.0439, -0.0647, -0.0218, -0.3700
1491431562.6810939312,1491431562.6835229397, -0.2599,  0.0182,  0.0439, -0.0496, -0.0281, -0.3633
1491431562.6838989258,1491431562.6862208843, -0.2599,  0.0182,  0.0439, -0.0496, -0.0281, -0.3633
1491431562.6865899563,1491431562.6888959408, -0.2599,  0.0182,  0.0439, -0.0496, -0.0281, -0.3633
1491431562.6892640591,1491431562.6915609837, -0.2599,  0.0182,  0.0361, -0.0496, -0.0281, -0.3555
1491431562.6919279099,1491431562.6942451000, -0.2572,  0.0279,  0.0377, -0.0308, -0.0339, -0.3553
1491431562.6946198940,1491431562.6970510483, -0.2572,  0.0279,  0.0377, -0.0308, -0.0339, -0.3553
1491431562.6974270344,1491431562.6998488903, -0.2572,  0.0279,  0.0377, -0.0308, -0.0339, -0.3553
1491431562.7002251148,1491431562.7026479244, -0.2572,  0.0279,  0.0377, -0.0152, -0.0378, -0.3480
1491431562.7030220032,1491431562.7054529190, -0.2572,  0.0279,  0.0377, -0.0087, -0.0378, -0.3480
1491431562.7058300972,1491431562.7082560062, -0.2572,  0.0279,  0.0377, -0.0087, -0.0378, -0.3480
1491431562.7086329460,1491431562.7110550404, -0.2572,  0.0279,  0.0377, -0.0087, -0.0378, -0.3480
1491431562.7114319801,1491431562.7138578892, -0.2438,  0.0227,  0.0244,  0.0094, -0.0408, -0.3393
1491431562.7142450809,1491431562.7166709900, -0.2438,  0.0227,  0.0244,  0.0094, -0.0408, -0.3393
1491431562.7170479298,1491431562.7194759846, -0.2438,  0.0227,  0.0244,  0.0094, -0.0408, -0.3393
1491431562.7198529243,1491431562.7222790718, -0.2438,  0.0227,  0.0244,  0.0094, -0.0408, -0.3393
1491431562.7226550579,1491431562.7251329422, -0.2438,  0.0227,  0.0244,  0.0227, -0.0428, -0.3241
1491431562.7255089283,1491431562.7279400826, -0.2438,  0.0227,  0.0244,  0.0227, -0.0428, -0.3241
1491431562.7283170223,1491431562.7307419777, -0.2438,  0.0227,  0.0244,  0.0227, -0.0428, -0.3241
1491431562.7311179638,1491431562.7335500717, -0.2371,  0.0162,  0.0092,  0.0305, -0.0422, -0.3066
1491431562.7339279652,1491431562.7362480164, -0.2371,  0.0162,  0.0092,  0.0286, -0.0422, -0.3066
1491431562.7366180420,1491431562.7389209270, -0.2371,  0.0162,  0.0092,  0.0286, -0.0422, -0.3066
1491431562.7392890453,1491431562.7415900230, -0.2371,  0.0162,  0.0092,  0.0286, -0.0422, -0.3066
1491431562.7419600487,1491431562.7443249226, -0.2371,  0.0162,  0.0092,  0.0318, -0.0385, -0.2860
1491431562.7447021008,1491431562.7471230030, -0.2371,  0.0162,  0.0092,  0.0318, -0.0385, -0.2860
1491431562.7474999428,1491431562.7499270439, -0.2371,  0.0162,  0.0092,  0.0318, -0.0385, -0.2860
1491431562.7503039837,1491431562.7527339458, -0.2156,  0.0285, -0.0102,  0.0318, -0.0385, -0.2860
1491431562.7531108856,1491431562.7555580139, -0.2156,  0.0285, -0.0102,  0.0351, -0.0349, -0.2645
1491431562.7559349537,1491431562.7583549023, -0.2156,  0.0285, -0.0102,  0.0351, -0.0349, -0.2645
1491431562.7587308884,1491431562.7611560822, -0.2156,  0.0285, -0.0102,  0.0351, -0.0349, -0.2645
1491431562.7615330219,1491431562.7639610767, -0.2156,  0.0285, -0.0102,  0.0351, -0.0349, -0.2426
1491431562.7643380165,1491431562.7667610645, -0.2156,  0.0285, -0.0102,  0.0387, -0.0323, -0.2426
1491431562.7671370506,1491431562.7695689201, -0.2156,  0.0285, -0.0102,  0.0387, -0.0323, -0.2426
1491431562.7699439526,1491431562.7723760605, -0.2030,  0.0412, -0.0229,  0.0387, -0.0323, -0.2426
1491431562.7727539539,1491431562.7751379013, -0.2030,  0.0412, -0.0229,  0.0390, -0.0297, -0.2211
1491431562.7756159306,1491431562.7779150009, -0.2030,  0.0412, -0.0229,  0.0390, -0.0297, -0.2211
1491431562.7782831192,1491431562.7805879116, -0.2030,  0.0412, -0.0229,  0.0390, -0.0297, -0.2211
1491431562.7809560299,1491431562.7832560539, -0.2030,  0.0412, -0.0229,  0.0390, -0.0297, -0.2211
1491431562.7836260796,1491431562.7859361172, -0.2030,  0.0412, -0.0229,  0.0367, -0.0262, -0.1970
1491431562.7863070965,1491431562.7886090279, -0.2030,  0.0412, -0.0229,  0.0367, -0.0262, -0.1970
1491431562.7889790535,1491431562.7912819386, -0.2030,  0.0448, -0.0315,  0.0367, -0.0262, -0.1970
1491431562.7916491032,1491431562.7939538956, -0.1979,  0.0448, -0.0315,  0.0367, -0.0262, -0.1970
1491431562.7943210602,1491431562.7966189384, -0.1979,  0.0448, -0.0315,  0.0309, -0.0190, -0.1708
1491431562.7969870567,1491431562.7992870808, -0.1979,  0.0448, -0.0315,  0.0309, -0.0190, -0.1708
1491431562.7996571064,1491431562.8019549847, -0.1979,  0.0448, -0.0315,  0.0309, -0.0190, -0.1708
1491431562.8023250103,1491431562.8047010899, -0.1979,  0.0448, -0.0315,  0.0309, -0.0190, -0.1473
