timestamp_before,timestamp_after,accel_x,accel_y,accel_z,gyro_x,gyro_y,gryo_z
1491431865.4624888897,1491431865.4654579163, -0.1898, -0.0100,  0.0057,  0.0031,  0.0010, -0.0149
1491431865.4659149647,1491431865.4682190418, -0.1898, -0.0100,  0.0067,  0.0040,  0.0019, -0.0086
1491431865.4685928822,1491431865.4708940983, -0.1902, -0.0092,  0.0067,  0.0040,  0.0019, -0.0086
1491431865.4712650776,1491431865.4735651016, -0.1902, -0.0092,  0.0067,  0.0040,  0.0019, -0.0086
1491431865.4739348888,1491431865.4764640331, -0.1902, -0.0092,  0.0067,  0.0040,  0.0023, -0.0093
1491431865.4768369198,1491431865.4791429043, -0.1902, -0.0092,  0.0067,  0.0036,  0.0023, -0.0093
1491431865.4795150757,1491431865.4818201065, -0.1902, -0.0092,  0.0067,  0.0036,  0.0023, -0.0093
1491431865.4821910858,1491431865.4845321178, -0.1902, -0.0092,  0.0067,  0.0036,  0.0023, -0.0093
1491431865.4849040508,1491431865.4872090816, -0.1902, -0.0092,  0.0067,  0.0031,  0.0019, -0.0089
1491431865.4875791073,1491431865.4898769855, -0.1889, -0.0091,  0.0053,  0.0031,  0.0019, -0.0089
1491431865.4902479649,1491431865.4925448895, -0.1889, -0.0091,  0.0053,  0.0031,  0.0019, -0.0089
1491431865.4929170609,1491431865.4953761101, -0.1889, -0.0091,  0.0053,  0.0031,  0.0019, -0.0089
1491431865.4957571030,1491431865.4981839657, -0.1889, -0.0091,  0.0053,  0.0046,  0.0026, -0.0104
1491431865.4985620975,1491431865.5009880066, -0.1889, -0.0091,  0.0053,  0.0046,  0.0026, -0.0104
1491431865.5013659000,1491431865.5037920475, -0.1889, -0.0091,  0.0053,  0.0046,  0.0026, -0.0104
1491431865.5041809082,1491431865.5064899921, -0.1889, -0.0091,  0.0053,  0.0046,  0.0026, -0.0104
1491431865.5068600178,1491431865.5091600418, -0.1884, -0.0109,  0.0026,  0.0056,  0.0022, -0.0116
1491431865.5095291138,1491431865.5118319988, -0.1884, -0.0109,  0.0026,  0.0056,  0.0022, -0.0116
1491431865.5122001171,1491431865.5145440102, -0.1884, -0.0109,  0.0026,  0.0056,  0.0022, -0.0116
1491431865.5149130821,1491431865.5172169209, -0.1884, -0.0109,  0.0026,  0.0056,  0.0022, -0.0125
1491431865.5175890923,1491431865.5198810101, -0.1884, -0.0109,  0.0026,  0.0060,  0.0007, -0.0125
1491431865.5202519894,1491431865.5225510597, -0.1884, -0.0109,  0.0026,  0.0060,  0.0007, -0.0125
1491431865.5229210854,1491431865.5253500938, -0.1884, -0.0109,  0.0026,  0.0060,  0.0007, -0.0125
1491431865.5257260799,1491431865.5281410217, -0.1884, -0.0101,  0.0048,  0.0064,  0.0004, -0.0138
1491431865.5285201073,1491431865.5309479237, -0.1883, -0.0101,  0.0048,  0.0064,  0.0004, -0.0138
1491431865.5313289165,1491431865.5337400436, -0.1883, -0.0101,  0.0048,  0.0064,  0.0004, -0.0138
1491431865.5341238976,1491431865.5365140438, -0.1883, -0.0101,  0.0048,  0.0064,  0.0004, -0.0138
1491431865.5368890762,1491431865.5392839909, -0.1883, -0.0101,  0.0048,  0.0068,  0.0002, -0.0149
1491431865.5396609306,1491431865.5421380997, -0.1883, -0.0101,  0.0048,  0.0068,  0.0002, -0.0149
1491431865.5425159931,1491431865.5450839996, -0.1883, -0.0101,  0.0048,  0.0068,  0.0002, -0.0149
1491431865.5454540253,1491431865.5477590561, -0.1883, -0.0101,  0.0046,  0.0068,  0.0002, -0.0149
1491431865.5481278896,1491431865.5504310131, -0.1891, -0.0106,  0.0046,  0.0071,  0.0004, -0.0140
1491431865.5508038998,1491431865.5531010628, -0.1891, -0.0106,  0.0046,  0.0071,  0.0004, -0.0140
1491431865.5534729958,1491431865.5558180809, -0.1891, -0.0106,  0.0046,  0.0071,  0.0004, -0.0140
1491431865.5561869144,1491431865.5584869385, -0.1891, -0.0106,  0.0046,  0.0071,  0.0004, -0.0146
1491431865.5588569641,1491431865.5611538887, -0.1891, -0.0106,  0.0046,  0.0075,  0.0003, -0.0146
1491431865.5615229607,1491431865.5638189316, -0.1891, -0.0106,  0.0046,  0.0075,  0.0003, -0.0146
1491431865.5642030239,1491431865.5666151047, -0.1891, -0.0106,  0.0046,  0.0075,  0.0003, -0.0146
1491431865.5669939518,1491431865.5694050789, -0.1891, -0.0103,  0.0052,  0.0070,  0.0008, -0.0151
1491431865.5697801113,1491431865.5721919537, -0.1891, -0.0103,  0.0052,  0.0070,  0.0008, -0.0151
1491431865.5725679398,1491431865.5749518871, -0.1891, -0.0103,  0.0052,  0.0070,  0.0008, -0.0151
1491431865.5753240585,1491431865.5776228905, -0.1891, -0.0103,  0.0052,  0.0070,  0.0008, -0.0151
1491431865.5781369209,1491431865.5806810856, -0.1891, -0.0103,  0.0052,  0.0071,  0.0006, -0.0148
1491431865.5810720921,1491431865.5833890438, -0.1891, -0.0103,  0.0052,  0.0071,  0.0006, -0.0148
1491431865.5837619305,1491431865.5862829685, -0.1891, -0.0103,  0.0052,  0.0071,  0.0006, -0.0148
1491431865.5866560936,1491431865.5889561176, -0.1894, -0.0107,  0.0037,  0.0071,  0.0006, -0.0148
1491431865.5893259048,1491431865.5916230679, -0.1894, -0.0107,  0.0037,  0.0073,  0.0012, -0.0138
1491431865.5919940472,1491431865.5945041180, -0.1894, -0.0107,  0.0037,  0.0073,  0.0012, -0.0138
1491431865.5948760509,1491431865.5971748829, -0.1894, -0.0107,  0.0037,  0.0073,  0.0012, -0.0138
1491431865.5975461006,1491431865.5998470783, -0.1894, -0.0107,  0.0037,  0.0073,  0.0019, -0.0150
1491431865.6002180576,1491431865.6025149822, -0.1894, -0.0107,  0.0037,  0.0074,  0.0019, -0.0150
1491431865.6028850079,1491431865.6051940918, -0.1894, -0.0107,  0.0037,  0.0074,  0.0019, -0.0150
1491431865.6055629253,1491431865.6078610420, -0.1891, -0.0111,  0.0056,  0.0074,  0.0019, -0.0150
1491431865.6082320213,1491431865.6105270386, -0.1891, -0.0111,  0.0056,  0.0070,  0.0021, -0.0157
1491431865.6108980179,1491431865.6131889820, -0.1891, -0.0111,  0.0056,  0.0070,  0.0021, -0.0157
1491431865.6135590076,1491431865.6158640385, -0.1891, -0.0111,  0.0056,  0.0070,  0.0021, -0.0157
1491431865.6162340641,1491431865.6185328960, -0.1891, -0.0111,  0.0056,  0.0070,  0.0021, -0.0157
1491431865.6189041138,1491431865.6211969852, -0.1891, -0.0111,  0.0056,  0.0066,  0.0024, -0.0157
1491431865.6215670109,1491431865.6238629818, -0.1891, -0.0111,  0.0056,  0.0066,  0.0024, -0.0157
1491431865.6242389679,1491431865.6268079281, -0.1891, -0.0111,  0.0056,  0.0066,  0.0024, -0.0157
1491431865.6271789074,1491431865.6294829845, -0.1891, -0.0116,  0.0054,  0.0066,  0.0024, -0.0157
1491431865.6298520565,1491431865.6321589947, -0.1891, -0.0116,  0.0054,  0.0068,  0.0037, -0.0155
1491431865.6325299740,1491431865.6350550652, -0.1891, -0.0116,  0.0054,  0.0068,  0.0037, -0.0155
1491431865.6354329586,1491431865.6378240585, -0.1891, -0.0116,  0.0054,  0.0068,  0.0037, -0.0155
1491431865.6382000446,1491431865.6406428814, -0.1891, -0.0116,  0.0054,  0.0068,  0.0037, -0.0150
1491431865.6410200596,1491431865.6434090137, -0.1891, -0.0116,  0.0054,  0.0058,  0.0041, -0.0150
1491431865.6446120739,1491431865.6469209194, -0.1891, -0.0116,  0.0064,  0.0058,  0.0041, -0.0150
1491431865.6472930908,1491431865.6495959759, -0.1896, -0.0116,  0.0064,  0.0058,  0.0041, -0.0150
1491431865.6499679089,1491431865.6522669792, -0.1896, -0.0116,  0.0064,  0.0066,  0.0048, -0.0136
1491431865.6526379585,1491431865.6549499035, -0.1896, -0.0116,  0.0064,  0.0066,  0.0048, -0.0136
1491431865.6553208828,1491431865.6576180458, -0.1896, -0.0116,  0.0064,  0.0066,  0.0048, -0.0136
1491431865.6579871178,1491431865.6602890491, -0.1896, -0.0116,  0.0064,  0.0066,  0.0048, -0.0136
1491431865.6606590748,1491431865.6629650593, -0.1896, -0.0116,  0.0064,  0.0082,  0.0046, -0.0137
1491431865.6633338928,1491431865.6657600403, -0.1896, -0.0116,  0.0064,  0.0082,  0.0046, -0.0137
1491431865.6661388874,1491431865.6685740948, -0.1894, -0.0124,  0.0067,  0.0082,  0.0046, -0.0137
1491431865.6689510345,1491431865.6713790894, -0.1894, -0.0124,  0.0067,  0.0082,  0.0046, -0.0118
1491431865.6717560291,1491431865.6741940975, -0.1894, -0.0124,  0.0067,  0.0078,  0.0052, -0.0118
1491431865.6745660305,1491431865.6768670082, -0.1894, -0.0124,  0.0067,  0.0078,  0.0052, -0.0118
1491431865.6772389412,1491431865.6795380116, -0.1894, -0.0124,  0.0067,  0.0078,  0.0052, -0.0118
1491431865.6799058914,1491431865.6822059155, -0.1894, -0.0124,  0.0067,  0.0078,  0.0053, -0.0113
1491431865.6825768948,1491431865.6849141121, -0.1894, -0.0124,  0.0067,  0.0079,  0.0053, -0.0113
1491431865.6852829456,1491431865.6875810623, -0.1881, -0.0113,  0.0025,  0.0079,  0.0053, -0.0113
1491431865.6879498959,1491431865.6902580261, -0.1881, -0.0113,  0.0025,  0.0079,  0.0053, -0.0113
1491431865.6907880306,1491431865.6930980682, -0.1881, -0.0113,  0.0025,  0.0067,  0.0042, -0.0103
1491431865.6934680939,1491431865.6961040497, -0.1881, -0.0113,  0.0025,  0.0067,  0.0042, -0.0103
1491431865.6964750290,1491431865.6987779140, -0.1881, -0.0113,  0.0025,  0.0067,  0.0042, -0.0103
1491431865.6991510391,1491431865.7015080452, -0.1881, -0.0113,  0.0025,  0.0067,  0.0042, -0.0103
1491431865.7018759251,1491431865.7042310238, -0.1881, -0.0113,  0.0025,  0.0061,  0.0029, -0.0092
1491431865.7046310902,1491431865.7071928978, -0.1886, -0.0120,  0.0056,  0.0061,  0.0029, -0.0092
1491431865.7075769901,1491431865.7100849152, -0.1886, -0.0120,  0.0056,  0.0061,  0.0029, -0.0092
1491431865.7104649544,1491431865.7128920555, -0.1886, -0.0120,  0.0056,  0.0061,  0.0029, -0.0091
1491431865.7132680416,1491431865.7157280445, -0.1886, -0.0120,  0.0056,  0.0055,  0.0027, -0.0091
1491431865.7161049843,1491431865.7185230255, -0.1886, -0.0120,  0.0056,  0.0055,  0.0027, -0.0091
1491431865.7189021111,1491431865.7213211060, -0.1886, -0.0120,  0.0056,  0.0055,  0.0027, -0.0091
1491431865.7216989994,1491431865.7241261005, -0.1886, -0.0120,  0.0056,  0.0051,  0.0025, -0.0083
1491431865.7245030403,1491431865.7269229889, -0.1899, -0.0116,  0.0074,  0.0051,  0.0025, -0.0083
1491431865.7273008823,1491431865.7297279835, -0.1899, -0.0116,  0.0074,  0.0051,  0.0025, -0.0083
1491431865.7301049232,1491431865.7325189114, -0.1899, -0.0116,  0.0074,  0.0051,  0.0025, -0.0083
1491431865.7328960896,1491431865.7353239059, -0.1899, -0.0116,  0.0074,  0.0042,  0.0030, -0.0078
1491431865.7356998920,1491431865.7383379936, -0.1899, -0.0116,  0.0074,  0.0042,  0.0030, -0.0078
1491431865.7387380600,1491431865.7412149906, -0.1899, -0.0116,  0.0074,  0.0042,  0.0030, -0.0078
1491431865.7415940762,1491431865.7440230846, -0.1899, -0.0116,  0.0074,  0.0042,  0.0055, -0.0075
1491431865.7444550991,1491431865.7468819618, -0.1899, -0.0104,  0.0072,  0.0051,  0.0055, -0.0075
1491431865.7472579479,1491431865.7496829033, -0.1899, -0.0104,  0.0072,  0.0051,  0.0055, -0.0075
1491431865.7500610352,1491431865.7524809837, -0.1899, -0.0104,  0.0072,  0.0051,  0.0055, -0.0075
1491431865.7528579235,1491431865.7553389072, -0.1899, -0.0104,  0.0072,  0.0055,  0.0072, -0.0081
1491431865.7557148933,1491431865.7581009865, -0.1899, -0.0104,  0.0072,  0.0055,  0.0072, -0.0081
1491431865.7584760189,1491431865.7609519958, -0.1899, -0.0104,  0.0072,  0.0055,  0.0072, -0.0081
1491431865.7613320351,1491431865.7637639046, -0.1899, -0.0104,  0.0072,  0.0055,  0.0072, -0.0002
1491431865.7641489506,1491431865.7665801048, -0.1888, -0.0108,  0.0063,  0.0067,  0.0071, -0.0076
1491431865.7669560909,1491431865.7693860531, -0.1888, -0.0108,  0.0063,  0.0067,  0.0071, -0.0076
1491431865.7697639465,1491431865.7722020149, -0.1888, -0.0108,  0.0063,  0.0067,  0.0071, -0.0076
1491431865.7725789547,1491431865.7749810219, -0.1888, -0.0108,  0.0063,  0.0067,  0.0068, -0.0078
1491431865.7753529549,1491431865.7776539326, -0.1888, -0.0108,  0.0063,  0.0076,  0.0068, -0.0078
1491431865.7780249119,1491431865.7803280354, -0.1888, -0.0108,  0.0063,  0.0076,  0.0068, -0.0078
1491431865.7806990147,1491431865.7830018997, -0.1888, -0.0108,  0.0063,  0.0076,  0.0068, -0.0078
1491431865.7833731174,1491431865.7858030796, -0.1888, -0.0112,  0.0063,  0.0078,  0.0076, -0.0081
1491431865.7861750126,1491431865.7884740829, -0.1896, -0.0112,  0.0063,  0.0078,  0.0076, -0.0081
1491431865.7888441086,1491431865.7911460400, -0.1896, -0.0112,  0.0063,  0.0078,  0.0076, -0.0081
1491431865.7915151119,1491431865.7938270569, -0.1896, -0.0112,  0.0063,  0.0078,  0.0076, -0.0081
1491431865.7942318916,1491431865.7965369225, -0.1896, -0.0112,  0.0063,  0.0072,  0.0081, -0.0072
1491431865.7969079018,1491431865.7992110252, -0.1896, -0.0112,  0.0063,  0.0072,  0.0081, -0.0072
1491431865.7995829582,1491431865.8018860817, -0.1896, -0.0112,  0.0063,  0.0072,  0.0081, -0.0072
1491431865.8022570610,1491431865.8046109676, -0.1896, -0.0112,  0.0063,  0.0072,  0.0081, -0.0072
1491431865.8049819469,1491431865.8072869778, -0.1892, -0.0100,  0.0044,  0.0065,  0.0086, -0.0071
1491431865.8077878952,1491431865.8100979328, -0.1892, -0.0100,  0.0044,  0.0065,  0.0086, -0.0071
1491431865.8104679585,1491431865.8127679825, -0.1892, -0.0100,  0.0044,  0.0065,  0.0086, -0.0071
1491431865.8131411076,1491431865.8156640530, -0.1892, -0.0100,  0.0044,  0.0065,  0.0086, -0.0070
1491431865.8160429001,1491431865.8184568882, -0.1892, -0.0100,  0.0044,  0.0071,  0.0082, -0.0070
1491431865.8188331127,1491431865.8212471008, -0.1892, -0.0100,  0.0044,  0.0071,  0.0082, -0.0070
1491431865.8216249943,1491431865.8240458965, -0.1892, -0.0100,  0.0044,  0.0071,  0.0082, -0.0070
1491431865.8244750500,1491431865.8268899918, -0.1902, -0.0090,  0.0052,  0.0070,  0.0091, -0.0057
1491431865.8272678852,1491431865.8296849728, -0.1902, -0.0090,  0.0052,  0.0070,  0.0091, -0.0057
1491431865.8300631046,1491431865.8324859142, -0.1902, -0.0090,  0.0052,  0.0070,  0.0091, -0.0057
1491431865.8328669071,1491431865.8353281021, -0.1902, -0.0090,  0.0052,  0.0070,  0.0091, -0.0057
1491431865.8357050419,1491431865.8381390572, -0.1902, -0.0090,  0.0052,  0.0072,  0.0103, -0.0067
1491431865.8385179043,1491431865.8409469128, -0.1902, -0.0090,  0.0052,  0.0072,  0.0103, -0.0067
1491431865.8413279057,1491431865.8437509537, -0.1902, -0.0090,  0.0052,  0.0072,  0.0103, -0.0067
1491431865.8441369534,1491431865.8465759754, -0.1886, -0.0086,  0.0029,  0.0072,  0.0025, -0.0052
1491431865.8469519615,1491431865.8493740559, -0.1886, -0.0086,  0.0029,  0.0064,  0.0074, -0.0052
1491431865.8497509956,1491431865.8521718979, -0.1886, -0.0086,  0.0029,  0.0064,  0.0074, -0.0052
1491431865.8525500298,1491431865.8549609184, -0.1886, -0.0086,  0.0029,  0.0064,  0.0074, -0.0052
1491431865.8553309441,1491431865.8576340675, -0.1886, -0.0086,  0.0029,  0.0063,  0.0080, -0.0063
1491431865.8580050468,1491431865.8603088856, -0.1886, -0.0086,  0.0029,  0.0063,  0.0080, -0.0063
1491431865.8606789112,1491431865.8629789352, -0.1886, -0.0086,  0.0029,  0.0063,  0.0080, -0.0063
1491431865.8633511066,1491431865.8657710552, -0.1880, -0.0095,  0.0039,  0.0063,  0.0080, -0.0063
1491431865.8661499023,1491431865.8685801029, -0.1880, -0.0095,  0.0039,  0.0059,  0.0083, -0.0068
1491431865.8689599037,1491431865.8713839054, -0.1880, -0.0095,  0.0039,  0.0059,  0.0083, -0.0068
1491431865.8717629910,1491431865.8741979599, -0.1880, -0.0095,  0.0039,  0.0059,  0.0083, -0.0068
1491431865.8745770454,1491431865.8770070076, -0.1880, -0.0095,  0.0039,  0.0059,  0.0083, -0.0068
1491431865.8773839474,1491431865.8798060417, -0.1880, -0.0095,  0.0039,  0.0064,  0.0080, -0.0073
1491431865.8801829815,1491431865.8826129436, -0.1880, -0.0095,  0.0039,  0.0064,  0.0080, -0.0073
1491431865.8829910755,1491431865.8854370117, -0.1884, -0.0088,  0.0027,  0.0064,  0.0080, -0.0073
1491431865.8858160973,1491431865.8882400990, -0.1884, -0.0088,  0.0027,  0.0064,  0.0080, -0.0071
1491431865.8886179924,1491431865.8910489082, -0.1884, -0.0088,  0.0027,  0.0062,  0.0080, -0.0071
1491431865.8914279938,1491431865.8938519955, -0.1884, -0.0088,  0.0027,  0.0062,  0.0080, -0.0071
1491431865.8942399025,1491431865.8965439796, -0.1884, -0.0088,  0.0027,  0.0062,  0.0080, -0.0071
1491431865.8969130516,1491431865.8992168903, -0.1884, -0.0088,  0.0027,  0.0062,  0.0075, -0.0074
1491431865.8995859623,1491431865.9018859863, -0.1884, -0.0088,  0.0027,  0.0062,  0.0075, -0.0074
1491431865.9022569656,1491431865.9045999050, -0.1884, -0.0091,  0.0035,  0.0062,  0.0075, -0.0074
1491431865.9049808979,1491431865.9074161053, -0.1891, -0.0091,  0.0035,  0.0062,  0.0075, -0.0074
1491431865.9077959061,1491431865.9102220535, -0.1891, -0.0091,  0.0035,  0.0063,  0.0071, -0.0085
1491431865.9105999470,1491431865.9130320549, -0.1891, -0.0091,  0.0035,  0.0063,  0.0071, -0.0085
1491431865.9134109020,1491431865.9158370495, -0.1891, -0.0091,  0.0035,  0.0063,  0.0071, -0.0085
1491431865.9162139893,1491431865.9186449051, -0.1891, -0.0091,  0.0035,  0.0063,  0.0071, -0.0087
1491431865.9190230370,1491431865.9214489460, -0.1891, -0.0091,  0.0035,  0.0068,  0.0064, -0.0087
1491431865.9218280315,1491431865.9242930412, -0.1891, -0.0091,  0.0043,  0.0068,  0.0064, -0.0087
1491431865.9247798920,1491431865.9272139072, -0.1896, -0.0081,  0.0043,  0.0068,  0.0064, -0.0087
1491431865.9275929928,1491431865.9300200939, -0.1896, -0.0081,  0.0043,  0.0073,  0.0061, -0.0095
1491431865.9303979874,1491431865.9328279495, -0.1896, -0.0081,  0.0043,  0.0073,  0.0061, -0.0095
1491431865.9332060814,1491431865.9356410503, -0.1896, -0.0081,  0.0043,  0.0073,  0.0061, -0.0095
1491431865.9360189438,1491431865.9384419918, -0.1896, -0.0081,  0.0043,  0.0073,  0.0061, -0.0095
1491431865.9388189316,1491431865.9412429333, -0.1896, -0.0081,  0.0043,  0.0064,  0.0053, -0.0100
1491431865.9416201115,1491431865.9440500736, -0.1896, -0.0081,  0.0019,  0.0064,  0.0053, -0.0100
1491431865.9444639683,1491431865.9467680454, -0.1884, -0.0078,  0.0019,  0.0064,  0.0053, -0.0100
1491431865.9471380711,1491431865.9494440556, -0.1884, -0.0078,  0.0019,  0.0064,  0.0053, -0.0109
1491431865.9498169422,1491431865.9521119595, -0.1884, -0.0078,  0.0019,  0.0068,  0.0042, -0.0109
1491431865.9524829388,1491431865.9548308849, -0.1884, -0.0078,  0.0019,  0.0068,  0.0042, -0.0109
1491431865.9552109241,1491431865.9576420784, -0.1884, -0.0078,  0.0019,  0.0068,  0.0042, -0.0109
1491431865.9580199718,1491431865.9604430199, -0.1884, -0.0078,  0.0019,  0.0083,  0.0039, -0.0113
1491431865.9608209133,1491431865.9632489681, -0.1884, -0.0078,  0.0019,  0.0083,  0.0039, -0.0113
1491431865.9636259079,1491431865.9660620689, -0.1886, -0.0084,  0.0047,  0.0083,  0.0039, -0.0113
1491431865.9664399624,1491431865.9688711166, -0.1886, -0.0084,  0.0047,  0.0083,  0.0039, -0.0113
1491431865.9692490101,1491431865.9716820717, -0.1886, -0.0084,  0.0047,  0.0081,  0.0033, -0.0121
1491431865.9720609188,1491431865.9745299816, -0.1886, -0.0084,  0.0047,  0.0081,  0.0033, -0.0121
1491431865.9749059677,1491431865.9773380756, -0.1886, -0.0084,  0.0047,  0.0081,  0.0033, -0.0121
1491431865.9777150154,1491431865.9801459312, -0.1886, -0.0084,  0.0047,  0.0081,  0.0033, -0.0132
1491431865.9805259705,1491431865.9829509258, -0.1886, -0.0084,  0.0047,  0.0080,  0.0031, -0.0132
1491431865.9833281040,1491431865.9857668877, -0.1891, -0.0086,  0.0042,  0.0080,  0.0031, -0.0132
1491431865.9861459732,1491431865.9885730743, -0.1891, -0.0086,  0.0042,  0.0080,  0.0031, -0.0132
1491431865.9889531136,1491431865.9913799763, -0.1891, -0.0086,  0.0042,  0.0085,  0.0036, -0.0140
1491431865.9917581081,1491431865.9942018986, -0.1891, -0.0086,  0.0042,  0.0085,  0.0036, -0.0140
1491431865.9945731163,1491431865.9968750477, -0.1891, -0.0086,  0.0042,  0.0085,  0.0036, -0.0140
1491431865.9972450733,1491431865.9995439053, -0.1891, -0.0086,  0.0042,  0.0085,  0.0036, -0.0140
1491431865.9999160767,1491431866.0022170544, -0.1891, -0.0086,  0.0042,  0.0095,  0.0038, -0.0149
1491431866.0025889874,1491431866.0049109459, -0.1891, -0.0087,  0.0042,  0.0095,  0.0038, -0.0149
1491431866.0052800179,1491431866.0075790882, -0.1891, -0.0087,  0.0042,  0.0095,  0.0038, -0.0149
1491431866.0079479218,1491431866.0102570057, -0.1891, -0.0087,  0.0042,  0.0095,  0.0038, -0.0149
1491431866.0106260777,1491431866.0129261017, -0.1891, -0.0087,  0.0042,  0.0088,  0.0038, -0.0146
1491431866.0132980347,1491431866.0157680511, -0.1891, -0.0087,  0.0042,  0.0088,  0.0038, -0.0146
1491431866.0161468983,1491431866.0185809135, -0.1891, -0.0087,  0.0042,  0.0088,  0.0038, -0.0146
1491431866.0189580917,1491431866.0213820934, -0.1891, -0.0087,  0.0042,  0.0088,  0.0038, -0.0145
1491431866.0217590332,1491431866.0242009163, -0.1889, -0.0092,  0.0031,  0.0084,  0.0029, -0.0145
1491431866.0245809555,1491431866.0270080566, -0.1889, -0.0092,  0.0031,  0.0084,  0.0029, -0.0145
1491431866.0273859501,1491431866.0298109055, -0.1889, -0.0092,  0.0031,  0.0084,  0.0029, -0.0145
1491431866.0301899910,1491431866.0326180458, -0.1889, -0.0092,  0.0031,  0.0078,  0.0026, -0.0139
1491431866.0329959393,1491431866.0354340076, -0.1889, -0.0092,  0.0031,  0.0078,  0.0026, -0.0139
1491431866.0358130932,1491431866.0382440090, -0.1889, -0.0092,  0.0031,  0.0078,  0.0026, -0.0139
1491431866.0386199951,1491431866.0410521030, -0.1889, -0.0092,  0.0031,  0.0078,  0.0026, -0.0139
1491431866.0415410995,1491431866.0439660549, -0.1894, -0.0103,  0.0036,  0.0069,  0.0010, -0.0136
1491431866.0443348885,1491431866.0466411114, -0.1894, -0.0103,  0.0036,  0.0069,  0.0010, -0.0136
1491431866.0470108986,1491431866.0493140221, -0.1894, -0.0103,  0.0036,  0.0069,  0.0010, -0.0136
1491431866.0496830940,1491431866.0519878864, -0.1894, -0.0103,  0.0036,  0.0069,  0.0010, -0.0136
1491431866.0523569584,1491431866.0547409058, -0.1894, -0.0103,  0.0036,  0.0057,  0.0004, -0.0135
1491431866.0551199913,1491431866.0575509071, -0.1894, -0.0103,  0.0036,  0.0057,  0.0004, -0.0135
1491431866.0579280853,1491431866.0603599548, -0.1894, -0.0103,  0.0036,  0.0057,  0.0004, -0.0135
1491431866.0607359409,1491431866.0631599426, -0.1894, -0.0089,  0.0022,  0.0057, -0.0001, -0.0127
1491431866.0635380745,1491431866.0659790039, -0.1879, -0.0089,  0.0022,  0.0057, -0.0001, -0.0127
1491431866.0663559437,1491431866.0687880516, -0.1879, -0.0089,  0.0022,  0.0057, -0.0001, -0.0127
1491431866.0691668987,1491431866.0715920925, -0.1879, -0.0089,  0.0022,  0.0057, -0.0001, -0.0127
1491431866.0719709396,1491431866.0744009018, -0.1879, -0.0089,  0.0022,  0.0051, -0.0004, -0.0130
1491431866.0747780800,1491431866.0772080421, -0.1879, -0.0089,  0.0022,  0.0051, -0.0004, -0.0130
1491431866.0775859356,1491431866.0800139904, -0.1879, -0.0089,  0.0022,  0.0051, -0.0004, -0.0130
1491431866.0803909302,1491431866.0828249454, -0.1879, -0.0096,  0.0035,  0.0051, -0.0004, -0.0130
1491431866.0832018852,1491431866.0856339931, -0.1895, -0.0096,  0.0035,  0.0056, -0.0012, -0.0123
1491431866.0860118866,1491431866.0884408951, -0.1895, -0.0096,  0.0035,  0.0056, -0.0012, -0.0123
1491431866.0888199806,1491431866.0912499428, -0.1895, -0.0096,  0.0035,  0.0056, -0.0012, -0.0123
1491431866.0916290283,1491431866.0940499306, -0.1895, -0.0096,  0.0035,  0.0056, -0.0016, -0.0110
1491431866.0944709778,1491431866.0967710018, -0.1895, -0.0096,  0.0035,  0.0052, -0.0016, -0.0110
1491431866.0971419811,1491431866.0994479656, -0.1895, -0.0096,  0.0035,  0.0052, -0.0016, -0.0110
1491431866.0998170376,1491431866.1021180153, -0.1895, -0.0096,  0.0053,  0.0052, -0.0016, -0.0110
1491431866.1024889946,1491431866.1048219204, -0.1905, -0.0105,  0.0053,  0.0050, -0.0008, -0.0117
1491431866.1052010059,1491431866.1076240540, -0.1905, -0.0105,  0.0053,  0.0050, -0.0008, -0.0117
1491431866.1080000401,1491431866.1104259491, -0.1905, -0.0105,  0.0053,  0.0050, -0.0008, -0.0117
1491431866.1108040810,1491431866.1132318974, -0.1905, -0.0105,  0.0053,  0.0050, -0.0008, -0.0117
1491431866.1136100292,1491431866.1160459518, -0.1905, -0.0105,  0.0053,  0.0034,  0.0013, -0.0118
1491431866.1164250374,1491431866.1188530922, -0.1905, -0.0105,  0.0053,  0.0034,  0.0013, -0.0118
1491431866.1192309856,1491431866.1216640472, -0.1905, -0.0105,  0.0053,  0.0034,  0.0013, -0.0118
1491431866.1220428944,1491431866.1245169640, -0.1895, -0.0079,  0.0078,  0.0034,  0.0013, -0.0119
1491431866.1248950958,1491431866.1273250580, -0.1895, -0.0079,  0.0078,  0.0052,  0.0024, -0.0119
1491431866.1277019978,1491431866.1301250458, -0.1895, -0.0079,  0.0078,  0.0052,  0.0024, -0.0119
1491431866.1305038929,1491431866.1329278946, -0.1895, -0.0079,  0.0078,  0.0052,  0.0024, -0.0119
1491431866.1333050728,1491431866.1357479095, -0.1895, -0.0079,  0.0078,  0.0087,  0.0042, -0.0116
1491431866.1361238956,1491431866.1385500431, -0.1895, -0.0079,  0.0078,  0.0087,  0.0042, -0.0116
1491431866.1389260292,1491431866.1413540840, -0.1895, -0.0079,  0.0078,  0.0087,  0.0042, -0.0116
1491431866.1417338848,1491431866.1441669464, -0.1877, -0.0087,  0.0034,  0.0087,  0.0042, -0.0116
1491431866.1445360184,1491431866.1468319893, -0.1877, -0.0087,  0.0034,  0.0070,  0.0040, -0.0120
1491431866.1472010612,1491431866.1495089531, -0.1877, -0.0087,  0.0034,  0.0070,  0.0040, -0.0120
1491431866.1498780251,1491431866.1521790028, -0.1877, -0.0087,  0.0034,  0.0070,  0.0040, -0.0120
1491431866.1525499821,1491431866.1549339294, -0.1877, -0.0087,  0.0034,  0.0070,  0.0040, -0.0120
1491431866.1554119587,1491431866.1578450203, -0.1877, -0.0087,  0.0034,  0.0061,  0.0020, -0.0135
1491431866.1582229137,1491431866.1606481075, -0.1877, -0.0087,  0.0034,  0.0061,  0.0020, -0.0135
1491431866.1610279083,1491431866.1634509563, -0.1875, -0.0092,  0.0011,  0.0061,  0.0020, -0.0135
1491431866.1638309956,1491431866.1662681103, -0.1875, -0.0092,  0.0011,  0.0042,  0.0011, -0.0128
1491431866.1666469574,1491431866.1690759659, -0.1875, -0.0092,  0.0011,  0.0042,  0.0011, -0.0128
1491431866.1694540977,1491431866.1718859673, -0.1875, -0.0092,  0.0011,  0.0042,  0.0011, -0.0128
1491431866.1722660065,1491431866.1747028828, -0.1875, -0.0092,  0.0011,  0.0042,  0.0011, -0.0128
1491431866.1750819683,1491431866.1775081158, -0.1875, -0.0092,  0.0011,  0.0011, -0.0005, -0.0127
1491431866.1778850555,1491431866.1803169250, -0.1875, -0.0092,  0.0011,  0.0011, -0.0005, -0.0127
1491431866.1806969643,1491431866.1831219196, -0.1881, -0.0103,  0.0005,  0.0011, -0.0005, -0.0127
1491431866.1834990978,1491431866.1859369278, -0.1881, -0.0103,  0.0005,  0.0011, -0.0005, -0.0118
1491431866.1863141060,1491431866.1887409687, -0.1881, -0.0103,  0.0005, -0.0012, -0.0027, -0.0118
1491431866.1891200542,1491431866.1915440559, -0.1881, -0.0103,  0.0005, -0.0012, -0.0027, -0.0118
1491431866.1919209957,1491431866.1943480968, -0.1881, -0.0103,  0.0005, -0.0012, -0.0027, -0.0118
1491431866.1947178841,1491431866.1970210075, -0.1881, -0.0103,  0.0005, -0.0022, -0.0034, -0.0115
1491431866.1973888874,1491431866.1996901035, -0.1881, -0.0103,  0.0005, -0.0022, -0.0034, -0.0115
1491431866.2000598907,1491431866.2023670673, -0.1873, -0.0079,  0.0038, -0.0022, -0.0034, -0.0115
1491431866.2027370930,1491431866.2051429749, -0.1873, -0.0079,  0.0038, -0.0022, -0.0034, -0.0115
1491431866.2055220604,1491431866.2079460621, -0.1873, -0.0079,  0.0038, -0.0036, -0.0038, -0.0112
1491431866.2083230019,1491431866.2107529640, -0.1873, -0.0079,  0.0038, -0.0036, -0.0038, -0.0112
1491431866.2111310959,1491431866.2135570049, -0.1873, -0.0079,  0.0038, -0.0036, -0.0038, -0.0112
1491431866.2139329910,1491431866.2163898945, -0.1873, -0.0079,  0.0038, -0.0036, -0.0038, -0.0112
1491431866.2167689800,1491431866.2191960812, -0.1873, -0.0079,  0.0038, -0.0067, -0.0037, -0.0121
1491431866.2195749283,1491431866.2220029831, -0.1880, -0.0101, -0.0001, -0.0067, -0.0037, -0.0121
1491431866.2223799229,1491431866.2248210907, -0.1880, -0.0101, -0.0001, -0.0067, -0.0037, -0.0121
1491431866.2251989841,1491431866.2276260853, -0.1880, -0.0101, -0.0001, -0.0067, -0.0045, -0.0116
1491431866.2280030251,1491431866.2304320335, -0.1880, -0.0101, -0.0001, -0.0117, -0.0045, -0.0116
1491431866.2308080196,1491431866.2332410812, -0.1880, -0.0101, -0.0001, -0.0117, -0.0045, -0.0116
1491431866.2336170673,1491431866.2360460758, -0.1880, -0.0101, -0.0001, -0.0117, -0.0045, -0.0116
1491431866.2364230156,1491431866.2388539314, -0.1880, -0.0101, -0.0001, -0.0158, -0.0042, -0.0104
1491431866.2392311096,1491431866.2416570187, -0.1880, -0.0090,  0.0031, -0.0158, -0.0042, -0.0104
1491431866.2420330048,1491431866.2444999218, -0.1887, -0.0090,  0.0031, -0.0158, -0.0042, -0.0104
1491431866.2448699474,1491431866.2471780777, -0.1887, -0.0090,  0.0031, -0.0158, -0.0042, -0.0104
1491431866.2475469112,1491431866.2498500347, -0.1887, -0.0090,  0.0031, -0.0154, -0.0032, -0.0096
1491431866.2502200603,1491431866.2525179386, -0.1887, -0.0090,  0.0031, -0.0154, -0.0032, -0.0096
1491431866.2528870106,1491431866.2553060055, -0.1887, -0.0090,  0.0031, -0.0154, -0.0032, -0.0096
1491431866.2556829453,1491431866.2581119537, -0.1887, -0.0090,  0.0031, -0.0154, -0.0032, -0.0102
1491431866.2584910393,1491431866.2609241009, -0.1887, -0.0090,  0.0110, -0.0185, -0.0035, -0.0102
1491431866.2613029480,1491431866.2637250423, -0.1903, -0.0098,  0.0110, -0.0185, -0.0035, -0.0102
1491431866.2641110420,1491431866.2665369511, -0.1903, -0.0098,  0.0110, -0.0185, -0.0035, -0.0102
1491431866.2669129372,1491431866.2693459988, -0.1903, -0.0098,  0.0110, -0.0211, -0.0012, -0.0094
1491431866.2697260380,1491431866.2721540928, -0.1903, -0.0098,  0.0110, -0.0211, -0.0012, -0.0094
1491431866.2726390362,1491431866.2751119137, -0.1903, -0.0098,  0.0110, -0.0211, -0.0012, -0.0094
1491431866.2754919529,1491431866.2779240608, -0.1903, -0.0098,  0.0110, -0.0211, -0.0012, -0.0094
1491431866.2783060074,1491431866.2807331085, -0.1903, -0.0098,  0.0046, -0.0191,  0.0004, -0.0097
1491431866.2811100483,1491431866.2835369110, -0.1882, -0.0088,  0.0046, -0.0191,  0.0004, -0.0097
1491431866.2839128971,1491431866.2863490582, -0.1882, -0.0088,  0.0046, -0.0191,  0.0004, -0.0097
1491431866.2867290974,1491431866.2891540527, -0.1882, -0.0088,  0.0046, -0.0191,  0.0004, -0.0105
1491431866.2895300388,1491431866.2919590473, -0.1882, -0.0088,  0.0046, -0.0151,  0.0014, -0.0105
1491431866.2923359871,1491431866.2947421074, -0.1882, -0.0088,  0.0046, -0.0151,  0.0014, -0.0105
1491431866.2951130867,1491431866.2974140644, -0.1882, -0.0088,  0.0046, -0.0151,  0.0014, -0.0105
1491431866.2977869511,1491431866.3000919819, -0.1882, -0.0088,  0.0046, -0.0128,  0.0004, -0.0101
1491431866.3004629612,1491431866.3027648926, -0.1898, -0.0084,  0.0061, -0.0128,  0.0004, -0.0101
1491431866.3031339645,1491431866.3055589199, -0.1898, -0.0084,  0.0061, -0.0128,  0.0004, -0.0101
1491431866.3059360981,1491431866.3083600998, -0.1898, -0.0084,  0.0061, -0.0128,  0.0004, -0.0101
1491431866.3087379932,1491431866.3111600876, -0.1898, -0.0084,  0.0061, -0.0093,  0.0008, -0.0114
1491431866.3115379810,1491431866.3139739037, -0.1898, -0.0084,  0.0061, -0.0093,  0.0008, -0.0114
1491431866.3143498898,1491431866.3167769909, -0.1898, -0.0084,  0.0061, -0.0093,  0.0008, -0.0114
1491431866.3171548843,1491431866.3195800781, -0.1898, -0.0084,  0.0061, -0.0093,  0.0008, -0.0122
1491431866.3199579716,1491431866.3223938942, -0.1903, -0.0095,  0.0046, -0.0063,  0.0008, -0.0122
1491431866.3227720261,1491431866.3252089024, -0.1903, -0.0095,  0.0046, -0.0063,  0.0008, -0.0122
1491431866.3255870342,1491431866.3280189037, -0.1903, -0.0095,  0.0046, -0.0063,  0.0008, -0.0122
1491431866.3283979893,1491431866.3308229446, -0.1903, -0.0095,  0.0046, -0.0062,  0.0007, -0.0129
1491431866.3312010765,1491431866.3336250782, -0.1903, -0.0095,  0.0046, -0.0062,  0.0007, -0.0129
1491431866.3340029716,1491431866.3364419937, -0.1903, -0.0095,  0.0046, -0.0062,  0.0007, -0.0129
1491431866.3368210793,1491431866.3392438889, -0.1903, -0.0095,  0.0046, -0.0062,  0.0007, -0.0129
1491431866.3396220207,1491431866.3420529366, -0.1896, -0.0109,  0.0060, -0.0051,  0.0016, -0.0135
1491431866.3424310684,1491431866.3448650837, -0.1896, -0.0109,  0.0060, -0.0051,  0.0016, -0.0135
1491431866.3452379704,1491431866.3475370407, -0.1896, -0.0109,  0.0060, -0.0051,  0.0016, -0.0135
1491431866.3479089737,1491431866.3502159119, -0.1896, -0.0109,  0.0060, -0.0051,  0.0016, -0.0135
1491431866.3505890369,1491431866.3528900146, -0.1896, -0.0109,  0.0060, -0.0038,  0.0031, -0.0138
1491431866.3532600403,1491431866.3556509018, -0.1896, -0.0109,  0.0060, -0.0038,  0.0031, -0.0138
1491431866.3560280800,1491431866.3584599495, -0.1896, -0.0109,  0.0060, -0.0038,  0.0031, -0.0138
1491431866.3588390350,1491431866.3612680435, -0.1909, -0.0093,  0.0092, -0.0038,  0.0033, -0.0138
1491431866.3616449833,1491431866.3641009331, -0.1909, -0.0093,  0.0092, -0.0056,  0.0033, -0.0138
1491431866.3644740582,1491431866.3669099808, -0.1909, -0.0093,  0.0092, -0.0056,  0.0033, -0.0138
1491431866.3672890663,1491431866.3697159290, -0.1909, -0.0093,  0.0092, -0.0056,  0.0033, -0.0138
1491431866.3700931072,1491431866.3725259304, -0.1909, -0.0093,  0.0092, -0.0056,  0.0049, -0.0151
1491431866.3729040623,1491431866.3753380775, -0.1909, -0.0093,  0.0092, -0.0056,  0.0049, -0.0151
1491431866.3757169247,1491431866.3781421185, -0.1909, -0.0093,  0.0092, -0.0056,  0.0049, -0.0151
1491431866.3785190582,1491431866.3809549809, -0.1901, -0.0100,  0.0055, -0.0056,  0.0049, -0.0151
1491431866.3813340664,1491431866.3837640285, -0.1901, -0.0100,  0.0055, -0.0042,  0.0062, -0.0161
1491431866.3841500282,1491431866.3865759373, -0.1901, -0.0100,  0.0055, -0.0042,  0.0062, -0.0161
1491431866.3869550228,1491431866.3893880844, -0.1901, -0.0100,  0.0055, -0.0042,  0.0062, -0.0161
1491431866.3898749352,1491431866.3923020363, -0.1901, -0.0100,  0.0055, -0.0042,  0.0065, -0.0165
1491431866.3926808834,1491431866.3950750828, -0.1901, -0.0100,  0.0055, -0.0060,  0.0065, -0.0165
1491431866.3954470158,1491431866.3977479935, -0.1901, -0.0100,  0.0055, -0.0060,  0.0065, -0.0165
1491431866.3981189728,1491431866.4004189968, -0.1904, -0.0091,  0.0066, -0.0060,  0.0065, -0.0165
1491431866.4007899761,1491431866.4030940533, -0.1904, -0.0091,  0.0066, -0.0106,  0.0076, -0.0166
1491431866.4034650326,1491431866.4059169292, -0.1904, -0.0091,  0.0066, -0.0106,  0.0076, -0.0166
1491431866.4062950611,1491431866.4087049961, -0.1904, -0.0091,  0.0066, -0.0106,  0.0076, -0.0166
1491431866.4090819359,1491431866.4114990234, -0.1904, -0.0091,  0.0066, -0.0106,  0.0076, -0.0166
1491431866.4118750095,1491431866.4142980576, -0.1904, -0.0091,  0.0066, -0.0125,  0.0091, -0.0168
1491431866.4146769047,1491431866.4170949459, -0.1904, -0.0091,  0.0066, -0.0125,  0.0091, -0.0168
1491431866.4174740314,1491431866.4198839664, -0.1904, -0.0107,  0.0047, -0.0125,  0.0091, -0.0168
1491431866.4202599525,1491431866.4226698875, -0.1900, -0.0107,  0.0047, -0.0125,  0.0091, -0.0165
1491431866.4230470657,1491431866.4255070686, -0.1900, -0.0107,  0.0047, -0.0128,  0.0101, -0.0165
1491431866.4258849621,1491431866.4282960892, -0.1900, -0.0107,  0.0047, -0.0128,  0.0101, -0.0165
1491431866.4286699295,1491431866.4310839176, -0.1900, -0.0107,  0.0047, -0.0128,  0.0101, -0.0165
1491431866.4314599037,1491431866.4338788986, -0.1900, -0.0107,  0.0047, -0.0114,  0.0115, -0.0152
1491431866.4342639446,1491431866.4366528988, -0.1900, -0.0107,  0.0047, -0.0114,  0.0115, -0.0152
1491431866.4370288849,1491431866.4394230843, -0.1900, -0.0102,  0.0034, -0.0114,  0.0115, -0.0152
1491431866.4397969246,1491431866.4421889782, -0.1908, -0.0102,  0.0034, -0.0114,  0.0115, -0.0152
1491431866.4425621033,1491431866.4449379444, -0.1908, -0.0102,  0.0034, -0.0072,  0.0125, -0.0144
1491431866.4453101158,1491431866.4476130009, -0.1908, -0.0102,  0.0034, -0.0072,  0.0125, -0.0144
1491431866.4479849339,1491431866.4502840042, -0.1908, -0.0102,  0.0034, -0.0072,  0.0125, -0.0144
1491431866.4506518841,1491431866.4529490471, -0.1908, -0.0102,  0.0034, -0.0072,  0.0125, -0.0144
1491431866.4533181190,1491431866.4557950497, -0.1908, -0.0102,  0.0034, -0.0047,  0.0135, -0.0134
1491431866.4561719894,1491431866.4586040974, -0.1908, -0.0102,  0.0034, -0.0047,  0.0135, -0.0134
1491431866.4589829445,1491431866.4614191055, -0.1906, -0.0124,  0.0060, -0.0047,  0.0135, -0.0134
1491431866.4617969990,1491431866.4642210007, -0.1906, -0.0124,  0.0060, -0.0047,  0.0148, -0.0114
1491431866.4645988941,1491431866.4670279026, -0.1906, -0.0124,  0.0060, -0.0028,  0.0148, -0.0114
1491431866.4674069881,1491431866.4698400497, -0.1906, -0.0124,  0.0060, -0.0028,  0.0148, -0.0114
1491431866.4702188969,1491431866.4726459980, -0.1906, -0.0124,  0.0060, -0.0028,  0.0148, -0.0114
1491431866.4730229378,1491431866.4754550457, -0.1906, -0.0124,  0.0060, -0.0005,  0.0154, -0.0107
1491431866.4758319855,1491431866.4782619476, -0.1906, -0.0124,  0.0060, -0.0005,  0.0154, -0.0107
1491431866.4786410332,1491431866.4810669422, -0.1904, -0.0117,  0.0028, -0.0005,  0.0154, -0.0107
1491431866.4814429283,1491431866.4838709831, -0.1904, -0.0117,  0.0028, -0.0005,  0.0154, -0.0107
1491431866.4842510223,1491431866.4866740704, -0.1904, -0.0117,  0.0028,  0.0004,  0.0180, -0.0093
1491431866.4870519638,1491431866.4894750118, -0.1904, -0.0117,  0.0028,  0.0004,  0.0180, -0.0093
1491431866.4898519516,1491431866.4922831059, -0.1904, -0.0117,  0.0028,  0.0004,  0.0180, -0.0093
1491431866.4926609993,1491431866.4950799942, -0.1904, -0.0117,  0.0028,  0.0004,  0.0198, -0.0079
1491431866.4954509735,1491431866.4977509975, -0.1904, -0.0117,  0.0028,  0.0003,  0.0198, -0.0079
1491431866.4981191158,1491431866.5004229546, -0.1898, -0.0135,  0.0062,  0.0003,  0.0198, -0.0079
1491431866.5007939339,1491431866.5030949116, -0.1898, -0.0135,  0.0062,  0.0003,  0.0198, -0.0079
1491431866.5034639835,1491431866.5057740211, -0.1898, -0.0135,  0.0062, -0.0009,  0.0217, -0.0057
1491431866.5062499046,1491431866.5085480213, -0.1898, -0.0135,  0.0062, -0.0009,  0.0217, -0.0057
1491431866.5089190006,1491431866.5112190247, -0.1898, -0.0135,  0.0062, -0.0009,  0.0217, -0.0057
1491431866.5115890503,1491431866.5138919353, -0.1898, -0.0135,  0.0062, -0.0009,  0.0217, -0.0057
1491431866.5142738819,1491431866.5166978836, -0.1898, -0.0135,  0.0062, -0.0019,  0.0229, -0.0035
1491431866.5170741081,1491431866.5194959641, -0.1899, -0.0164,  0.0040, -0.0019,  0.0229, -0.0035
1491431866.5198750496,1491431866.5223059654, -0.1899, -0.0164,  0.0040, -0.0019,  0.0229, -0.0035
1491431866.5226829052,1491431866.5251131058, -0.1899, -0.0164,  0.0040, -0.0019,  0.0229, -0.0035
1491431866.5254909992,1491431866.5279219151, -0.1899, -0.0164,  0.0040, -0.0019,  0.0234, -0.0014
1491431866.5282979012,1491431866.5307190418, -0.1899, -0.0164,  0.0040, -0.0019,  0.0234, -0.0014
1491431866.5310950279,1491431866.5335199833, -0.1899, -0.0164,  0.0040, -0.0019,  0.0234, -0.0014
1491431866.5339000225,1491431866.5363359451, -0.1899, -0.0164,  0.0040, -0.0019,  0.0257,  0.0012
1491431866.5367119312,1491431866.5391418934, -0.1904, -0.0135, -0.0005, -0.0026,  0.0257,  0.0012
1491431866.5395200253,1491431866.5419390202, -0.1904, -0.0135, -0.0005, -0.0026,  0.0257,  0.0012
1491431866.5423140526,1491431866.5447199345, -0.1904, -0.0135, -0.0005, -0.0026,  0.0257,  0.0012
1491431866.5450921059,1491431866.5473899841, -0.1904, -0.0135, -0.0005, -0.0015,  0.0283,  0.0053
1491431866.5477609634,1491431866.5500650406, -0.1904, -0.0135, -0.0005, -0.0015,  0.0283,  0.0053
1491431866.5504360199,1491431866.5527329445, -0.1904, -0.0135, -0.0005, -0.0015,  0.0283,  0.0053
1491431866.5531020164,1491431866.5555300713, -0.1904, -0.0135, -0.0005, -0.0015,  0.0283,  0.0053
1491431866.5559070110,1491431866.5583400726, -0.1904, -0.0137, -0.0018, -0.0011,  0.0293,  0.0092
1491431866.5587179661,1491431866.5611429214, -0.1906, -0.0137, -0.0018, -0.0011,  0.0293,  0.0092
1491431866.5615229607,1491431866.5639479160, -0.1906, -0.0137, -0.0018, -0.0011,  0.0293,  0.0092
1491431866.5643360615,1491431866.5667660236, -0.1906, -0.0137, -0.0018, -0.0011,  0.0293,  0.0126
1491431866.5671439171,1491431866.5695719719, -0.1906, -0.0137, -0.0018, -0.0007,  0.0306,  0.0126
1491431866.5699501038,1491431866.5723791122, -0.1906, -0.0137, -0.0018, -0.0007,  0.0306,  0.0126
1491431866.5727550983,1491431866.5751950741, -0.1906, -0.0137, -0.0018, -0.0007,  0.0306,  0.0126
1491431866.5755720139,1491431866.5780019760, -0.1906, -0.0137, -0.0127,  0.0008,  0.0308,  0.0170
1491431866.5783810616,1491431866.5808150768, -0.1895, -0.0120, -0.0127,  0.0008,  0.0308,  0.0170
1491431866.5811910629,1491431866.5836169720, -0.1895, -0.0120, -0.0127,  0.0008,  0.0308,  0.0170
1491431866.5839920044,1491431866.5864338875, -0.1895, -0.0120, -0.0127,  0.0008,  0.0308,  0.0170
1491431866.5868120193,1491431866.5892438889, -0.1895, -0.0120, -0.0127,  0.0011,  0.0316,  0.0220
1491431866.5896210670,1491431866.5920488834, -0.1895, -0.0120, -0.0127,  0.0011,  0.0316,  0.0220
1491431866.5924251080,1491431866.5948579311, -0.1895, -0.0120, -0.0127,  0.0011,  0.0316,  0.0220
1491431866.5952270031,1491431866.5975248814, -0.1895, -0.0120,  0.0075,  0.0011,  0.0316,  0.0275
1491431866.5978989601,1491431866.6001949310, -0.1995, -0.0190,  0.0075,  0.0019,  0.0307,  0.0275
1491431866.6005640030,1491431866.6028730869, -0.1995, -0.0190,  0.0075,  0.0019,  0.0307,  0.0275
1491431866.6032419205,1491431866.6056339741, -0.1995, -0.0190,  0.0075,  0.0019,  0.0307,  0.0275
1491431866.6060121059,1491431866.6084370613, -0.1995, -0.0190,  0.0075,  0.0019,  0.0308,  0.0365
1491431866.6088130474,1491431866.6112370491, -0.1995, -0.0190,  0.0075,  0.0074,  0.0308,  0.0365
1491431866.6116139889,1491431866.6140329838, -0.1995, -0.0190,  0.0075,  0.0074,  0.0308,  0.0365
1491431866.6144731045,1491431866.6169068813, -0.1995, -0.0190,  0.0075,  0.0074,  0.0308,  0.0365
1491431866.6172831059,1491431866.6197099686, -0.2141, -0.0378,  0.0329,  0.0151,  0.0363,  0.0487
1491431866.6200890541,1491431866.6225140095, -0.2141, -0.0378,  0.0329,  0.0151,  0.0363,  0.0487
1491431866.6229970455,1491431866.6254429817, -0.2141, -0.0378,  0.0329,  0.0151,  0.0363,  0.0487
1491431866.6258180141,1491431866.6282410622, -0.2141, -0.0378,  0.0329,  0.0151,  0.0363,  0.0722
1491431866.6286189556,1491431866.6310410500, -0.2141, -0.0378,  0.0329,  0.0212,  0.0442,  0.0705
1491431866.6314160824,1491431866.6338460445, -0.2141, -0.0378,  0.0329,  0.0212,  0.0442,  0.0705
1491431866.6342310905,1491431866.6366579533, -0.2141, -0.0378,  0.0329,  0.0212,  0.0442,  0.0705
1491431866.6370329857,1491431866.6394650936, -0.2182, -0.0247,  0.0346,  0.0278,  0.0436,  0.0913
1491431866.6398398876,1491431866.6422679424, -0.2182, -0.0247,  0.0346,  0.0278,  0.0436,  0.0913
1491431866.6426429749,1491431866.6450688839, -0.2182, -0.0247,  0.0346,  0.0278,  0.0436,  0.0913
1491431866.6454379559,1491431866.6477439404, -0.2182, -0.0247,  0.0346,  0.0278,  0.0436,  0.0913
1491431866.6481139660,1491431866.6504108906, -0.2182, -0.0247,  0.0346,  0.0177,  0.0449,  0.1028
1491431866.6507821083,1491431866.6530818939, -0.2182, -0.0247,  0.0346,  0.0177,  0.0449,  0.1028
1491431866.6534509659,1491431866.6558549404, -0.2182, -0.0247,  0.0346,  0.0177,  0.0449,  0.1028
1491431866.6562309265,1491431866.6586549282, -0.2624, -0.0513, -0.0036,  0.0177,  0.0449,  0.1028
1491431866.6590330601,1491431866.6614649296, -0.2624, -0.0513, -0.0036,  0.0016,  0.0386,  0.1122
1491431866.6618430614,1491431866.6643099785, -0.2624, -0.0513, -0.0036,  0.0016,  0.0386,  0.1122
1491431866.6646881104,1491431866.6671130657, -0.2624, -0.0513, -0.0036,  0.0016,  0.0386,  0.1122
1491431866.6674909592,1491431866.6699180603, -0.2624, -0.0513, -0.0036,  0.0016,  0.0074,  0.1484
1491431866.6702940464,1491431866.6727149487, -0.2624, -0.0513, -0.0036,  0.0155,  0.0060,  0.1484
1491431866.6730930805,1491431866.6755340099, -0.2624, -0.0513, -0.0036,  0.0155,  0.0060,  0.1484
1491431866.6759090424,1491431866.6783390045, -0.3587, -0.1265, -0.0216,  0.0155,  0.0060,  0.1484
1491431866.6787168980,1491431866.6811470985, -0.3587, -0.1265, -0.0216,  0.0381,  0.0372,  0.2095
1491431866.6815209389,1491431866.6839439869, -0.3587, -0.1265, -0.0216,  0.0381,  0.0372,  0.2095
1491431866.6843268871,1491431866.6867520809, -0.3587, -0.1265, -0.0216,  0.0381,  0.0372,  0.2095
1491431866.6871290207,1491431866.6895539761, -0.3587, -0.1265, -0.0216,  0.0381,  0.0372,  0.2095
1491431866.6899299622,1491431866.6923630238, -0.3587, -0.1265, -0.0216,  0.0276,  0.0549,  0.2504
1491431866.6927390099,1491431866.6951289177, -0.3587, -0.1265, -0.0216,  0.0276,  0.0549,  0.2504
1491431866.6954979897,1491431866.6977930069, -0.2993, -0.0959,  0.0154,  0.0276,  0.0549,  0.2504
1491431866.6981639862,1491431866.7004690170, -0.2993, -0.0959,  0.0154,  0.0276,  0.0549,  0.2843
1491431866.7008380890,1491431866.7031409740, -0.2993, -0.0959,  0.0154,  0.0042,  0.0354,  0.2843
1491431866.7035100460,1491431866.7059519291, -0.2993, -0.0959,  0.0154,  0.0042,  0.0354,  0.2843
1491431866.7063291073,1491431866.7087519169, -0.2993, -0.0959,  0.0154,  0.0042,  0.0354,  0.2843
1491431866.7091300488,1491431866.7115559578, -0.2993, -0.0959,  0.0154, -0.0367,  0.0450,  0.3253
1491431866.7119309902,1491431866.7143750191, -0.2993, -0.0959,  0.0154, -0.0367,  0.0450,  0.3253
1491431866.7147519588,1491431866.7171790600, -0.2681, -0.0739,  0.0426, -0.0367,  0.0450,  0.3253
1491431866.7175569534,1491431866.7199850082, -0.2706, -0.0739,  0.0426, -0.0367,  0.0450,  0.3253
1491431866.7203600407,1491431866.7227940559, -0.2706, -0.0739,  0.0426, -0.0696,  0.0611,  0.3652
1491431866.7231690884,1491431866.7256090641, -0.2706, -0.0739,  0.0426, -0.0696,  0.0611,  0.3652
1491431866.7259869576,1491431866.7284159660, -0.2706, -0.0739,  0.0426, -0.0696,  0.0611,  0.3652
1491431866.7287909985,1491431866.7312200069, -0.2706, -0.0739,  0.0426, -0.0696,  0.0611,  0.3726
1491431866.7315950394,1491431866.7340240479, -0.2706, -0.0739,  0.0426, -0.1026,  0.0594,  0.3726
1491431866.7344579697,1491431866.7368869781, -0.3175, -0.0214,  0.0375, -0.1026,  0.0594,  0.3726
1491431866.7373631001,1491431866.7397890091, -0.3135, -0.0214,  0.0375, -0.1026,  0.0594,  0.3726
1491431866.7401640415,1491431866.7425909042, -0.3135, -0.0214,  0.0375, -0.1170,  0.0845,  0.3448
1491431866.7429668903,1491431866.7453529835, -0.3135, -0.0214,  0.0375, -0.1170,  0.0845,  0.3448
1491431866.7457249165,1491431866.7480280399, -0.3135, -0.0214,  0.0375, -0.1170,  0.0845,  0.3448
1491431866.7483971119,1491431866.7507050037, -0.3135, -0.0214,  0.0375, -0.1170,  0.0845,  0.3448
1491431866.7510740757,1491431866.7533760071, -0.3135, -0.0214,  0.0375, -0.0919,  0.1190,  0.3249
1491431866.7537450790,1491431866.7561709881, -0.3135, -0.0370, -0.0226, -0.0919,  0.1190,  0.3249
1491431866.7565469742,1491431866.7589750290, -0.1639, -0.0375, -0.0226, -0.0919,  0.1190,  0.3249
1491431866.7593500614,1491431866.7617740631, -0.1639, -0.0375, -0.0226, -0.0919,  0.1190,  0.3249
1491431866.7621500492,1491431866.7645840645, -0.1639, -0.0375, -0.0226, -0.0753,  0.1149,  0.2902
1491431866.7649600506,1491431866.7673881054, -0.1639, -0.0375, -0.0226, -0.0753,  0.1149,  0.2902
1491431866.7677650452,1491431866.7701919079, -0.1639, -0.0375, -0.0226, -0.0753,  0.1149,  0.2902
1491431866.7705659866,1491431866.7729990482, -0.1639, -0.0375, -0.0226, -0.0675,  0.0933,  0.2191
1491431866.7733728886,1491431866.7758090496, -0.1639, -0.0375,  0.0178, -0.0650,  0.0933,  0.2191
1491431866.7761850357,1491431866.7786099911, -0.0869, -0.0016,  0.0178, -0.0650,  0.0933,  0.2191
1491431866.7789869308,1491431866.7814159393, -0.0869, -0.0016,  0.0178, -0.0650,  0.0933,  0.2191
1491431866.7817919254,1491431866.7842168808, -0.0869, -0.0016,  0.0178, -0.0616,  0.0698,  0.1385
1491431866.7845959663,1491431866.7870190144, -0.0869, -0.0016,  0.0178, -0.0616,  0.0698,  0.1385
1491431866.7873980999,1491431866.7898249626, -0.0869, -0.0016,  0.0178, -0.0616,  0.0698,  0.1385
1491431866.7902009487,1491431866.7926239967, -0.0869, -0.0016,  0.0178, -0.0616,  0.0698,  0.1385
1491431866.7929990292,1491431866.7953710556, -0.0869, -0.0016,  0.0256, -0.0507,  0.0540,  0.0633
1491431866.7957420349,1491431866.7980411053, -0.1407, -0.1006,  0.0305, -0.0507,  0.0540,  0.0633
1491431866.7984130383,1491431866.8007140160, -0.1407, -0.1006,  0.0305, -0.0507,  0.0540,  0.0633
1491431866.8010830879,1491431866.8033900261, -0.1407, -0.1006,  0.0305, -0.0507,  0.0540,  0.0307
1491431866.8037579060,1491431866.8061900139, -0.1407, -0.1006,  0.0305, -0.0628,  0.0492,  0.0307
1491431866.8065669537,1491431866.8089919090, -0.1407, -0.1006,  0.0305, -0.0628,  0.0492,  0.0307
1491431866.8093669415,1491431866.8117909431, -0.1407, -0.1006,  0.0305, -0.0628,  0.0492,  0.0307
1491431866.8121669292,1491431866.8146030903, -0.1407, -0.1006,  0.0305, -0.0699,  0.0451,  0.0159
1491431866.8149790764,1491431866.8174068928, -0.0997, -0.0861,  0.0133, -0.0699,  0.0451,  0.0159
1491431866.8177831173,1491431866.8202099800, -0.0997, -0.0861,  0.0133, -0.0699,  0.0451,  0.0159
1491431866.8205869198,1491431866.8230080605, -0.0997, -0.0861,  0.0133, -0.0699,  0.0451,  0.0159
1491431866.8233819008,1491431866.8258249760, -0.0997, -0.0861,  0.0133, -0.0739,  0.0346, -0.0042
1491431866.8262009621,1491431866.8286230564, -0.0997, -0.0861,  0.0133, -0.0739,  0.0346, -0.0042
1491431866.8289990425,1491431866.8314189911, -0.0997, -0.0861,  0.0133, -0.0739,  0.0346, -0.0042
1491431866.8317959309,1491431866.8342239857, -0.0997, -0.0861,  0.0133, -0.0739,  0.0346, -0.0357
1491431866.8346009254,1491431866.8370289803, -0.0882, -0.0724,  0.0143, -0.0696,  0.0201, -0.0357
1491431866.8374040127,1491431866.8398349285, -0.0882, -0.0724,  0.0143, -0.0696,  0.0201, -0.0357
1491431866.8402109146,1491431866.8426370621, -0.0882, -0.0724,  0.0143, -0.0696,  0.0201, -0.0357
1491431866.8430120945,1491431866.8453760147, -0.0882, -0.0724,  0.0143, -0.0613,  0.0050, -0.0698
1491431866.8457460403,1491431866.8480570316, -0.0882, -0.0724,  0.0143, -0.0613,  0.0050, -0.0698
1491431866.8484249115,1491431866.8507230282, -0.0882, -0.0724,  0.0143, -0.0613,  0.0050, -0.0698
1491431866.8510909081,1491431866.8533918858, -0.0882, -0.0724,  0.0143, -0.0613,  0.0050, -0.0698
1491431866.8538689613,1491431866.8562190533, -0.0980, -0.0845,  0.0155, -0.0504, -0.0090, -0.0992
1491431866.8565909863,1491431866.8588850498, -0.0980, -0.0845,  0.0155, -0.0504, -0.0090, -0.0992
1491431866.8592569828,1491431866.8615579605, -0.0980, -0.0845,  0.0155, -0.0504, -0.0090, -0.0992
1491431866.8619260788,1491431866.8642470837, -0.0980, -0.0845,  0.0155, -0.0504, -0.0090, -0.0992
1491431866.8646259308,1491431866.8670549393, -0.0980, -0.0845,  0.0155, -0.0400, -0.0210, -0.1232
1491431866.8674340248,1491431866.8698680401, -0.0980, -0.0845,  0.0155, -0.0400, -0.0210, -0.1232
1491431866.8702468872,1491431866.8726720810, -0.0980, -0.0845,  0.0155, -0.0400, -0.0210, -0.1232
1491431866.8730490208,1491431866.8755240440, -0.0980, -0.0800,  0.0104, -0.0400, -0.0210, -0.1472
1491431866.8759009838,1491431866.8783249855, -0.1018, -0.0800,  0.0104, -0.0322, -0.0341, -0.1472
1491431866.8787019253,1491431866.8811280727, -0.1018, -0.0800,  0.0104, -0.0322, -0.0341, -0.1472
1491431866.8815031052,1491431866.8839359283, -0.1018, -0.0800,  0.0104, -0.0322, -0.0341, -0.1472
1491431866.8843190670,1491431866.8867468834, -0.1018, -0.0800,  0.0104, -0.0287, -0.0467, -0.1737
1491431866.8871259689,1491431866.8895459175, -0.1018, -0.0800,  0.0104, -0.0287, -0.0467, -0.1737
1491431866.8899199963,1491431866.8923509121, -0.1018, -0.0800,  0.0104, -0.0287, -0.0467, -0.1737
1491431866.8927280903,1491431866.8951649666, -0.1018, -0.0718,  0.0078, -0.0287, -0.0467, -0.1737
1491431866.8955430984,1491431866.8979699612, -0.1133, -0.0718,  0.0078, -0.0230, -0.0592, -0.2056
1491431866.8983449936,1491431866.9007780552, -0.1133, -0.0718,  0.0078, -0.0230, -0.0592, -0.2056
1491431866.9011540413,1491431866.9035871029, -0.1133, -0.0718,  0.0078, -0.0230, -0.0592, -0.2056
1491431866.9039630890,1491431866.9062891006, -0.1133, -0.0718,  0.0078, -0.0230, -0.0592, -0.2418
1491431866.9066619873,1491431866.9089570045, -0.1133, -0.0718,  0.0078, -0.0140, -0.0671, -0.2418
1491431866.9093270302,1491431866.9116280079, -0.1133, -0.0718,  0.0078, -0.0140, -0.0671, -0.2418
1491431866.9119970798,1491431866.9143550396, -0.1133, -0.0718,  0.0156, -0.0140, -0.0671, -0.2418
1491431866.9147310257,1491431866.9171559811, -0.1299, -0.0760,  0.0129, -0.0140, -0.0737, -0.2798
1491431866.9175310135,1491431866.9199481010, -0.1299, -0.0760,  0.0129, -0.0082, -0.0737, -0.2798
1491431866.9203259945,1491431866.9227509499, -0.1299, -0.0760,  0.0129, -0.0082, -0.0737, -0.2798
1491431866.9231278896,1491431866.9255650043, -0.1299, -0.0760,  0.0129, -0.0082, -0.0737, -0.2798
1491431866.9259400368,1491431866.9283699989, -0.1299, -0.0760,  0.0129, -0.0047, -0.0769, -0.3124
1491431866.9287490845,1491431866.9311730862, -0.1299, -0.0760,  0.0129, -0.0047, -0.0769, -0.3124
1491431866.9315490723,1491431866.9339699745, -0.1299, -0.0760,  0.0129, -0.0047, -0.0769, -0.3124
1491431866.9343450069,1491431866.9367780685, -0.1486, -0.0721,  0.0152, -0.0047, -0.0769, -0.3437
1491431866.9371550083,1491431866.9395809174, -0.1486, -0.0721,  0.0152, -0.0002, -0.0778, -0.3404
1491431866.9399580956,1491431866.9423871040, -0.1486, -0.0721,  0.0152, -0.0002, -0.0778, -0.3404
1491431866.9427618980,1491431866.9452059269, -0.1486, -0.0721,  0.0152, -0.0002, -0.0778, -0.3404
1491431866.9455819130,1491431866.9480090141, -0.1486, -0.0721,  0.0152,  0.0077, -0.0798, -0.3655
1491431866.9483869076,1491431866.9508171082, -0.1486, -0.0721,  0.0152,  0.0059, -0.0798, -0.3655
1491431866.9511940479,1491431866.9536209106, -0.1486, -0.0721,  0.0152,  0.0059, -0.0798, -0.3655
1491431866.9539980888,1491431866.9563200474, -0.1669, -0.0654,  0.0083,  0.0059, -0.0798, -0.3655
1491431866.9566910267,1491431866.9589939117, -0.1669, -0.0654,  0.0083,  0.0143, -0.0836, -0.3876
1491431866.9593629837,1491431866.9616580009, -0.1669, -0.0654,  0.0083,  0.0143, -0.0836, -0.3876
1491431866.9620261192,1491431866.9643499851, -0.1669, -0.0654,  0.0083,  0.0143, -0.0836, -0.3876
1491431866.9647259712,1491431866.9671580791, -0.1669, -0.0654,  0.0083,  0.0143, -0.0836, -0.3876
1491431866.9675340652,1491431866.9699559212, -0.1669, -0.0654,  0.0083,  0.0222, -0.0887, -0.4071
1491431866.9704470634,1491431866.9728770256, -0.1669, -0.0654,  0.0083,  0.0222, -0.0887, -0.4071
1491431866.9732549191,1491431866.9757330418, -0.1960, -0.0670, -0.0066,  0.0222, -0.0887, -0.4071
1491431866.9761130810,1491431866.9785358906, -0.1960, -0.0670, -0.0066,  0.0222, -0.0965, -0.4226
1491431866.9789130688,1491431866.9813399315, -0.1960, -0.0670, -0.0066,  0.0253, -0.0938, -0.4226
1491431866.9817159176,1491431866.9841508865, -0.1960, -0.0670, -0.0066,  0.0253, -0.0938, -0.4226
1491431866.9845290184,1491431866.9869539738, -0.1960, -0.0670, -0.0066,  0.0253, -0.0938, -0.4226
1491431866.9873321056,1491431866.9897649288, -0.1960, -0.0670, -0.0066,  0.0212, -0.0965, -0.4370
1491431866.9901430607,1491431866.9925711155, -0.1960, -0.0670, -0.0066,  0.0212, -0.0965, -0.4370
1491431866.9929490089,1491431866.9953949451, -0.2259, -0.0682, -0.0219,  0.0212, -0.0965, -0.4370
1491431866.9957730770,1491431866.9981949329, -0.2259, -0.0682, -0.0219,  0.0212, -0.0965, -0.4370
1491431866.9985699654,1491431867.0009920597, -0.2259, -0.0682, -0.0219,  0.0126, -0.0948, -0.4481
1491431867.0013689995,1491431867.0037989616, -0.2259, -0.0682, -0.0219,  0.0126, -0.0948, -0.4481
1491431867.0041849613,1491431867.0064849854, -0.2259, -0.0682, -0.0219,  0.0126, -0.0948, -0.4481
1491431867.0068531036,1491431867.0091528893, -0.2259, -0.0682, -0.0219,  0.0126, -0.0948, -0.4562
1491431867.0095219612,1491431867.0118238926, -0.2259, -0.0682, -0.0219, -0.0013, -0.0905, -0.4562
1491431867.0121939182,1491431867.0145590305, -0.2552, -0.0643, -0.0300, -0.0013, -0.0905, -0.4562
1491431867.0149350166,1491431867.0173668861, -0.2552, -0.0643, -0.0300, -0.0013, -0.0905, -0.4562
1491431867.0177440643,1491431867.0201649666, -0.2552, -0.0643, -0.0300, -0.0186, -0.0818, -0.4604
1491431867.0205409527,1491431867.0229649544, -0.2552, -0.0643, -0.0300, -0.0186, -0.0818, -0.4604
1491431867.0233380795,1491431867.0257749557, -0.2552, -0.0643, -0.0300, -0.0186, -0.0818, -0.4604
1491431867.0261518955,1491431867.0285758972, -0.2552, -0.0643, -0.0300, -0.0186, -0.0818, -0.4604
1491431867.0289499760,1491431867.0313780308, -0.2552, -0.0643, -0.0300, -0.0396, -0.0710, -0.4580
1491431867.0317540169,1491431867.0341889858, -0.2864, -0.0531, -0.0236, -0.0396, -0.0710, -0.4580
1491431867.0345671177,1491431867.0369899273, -0.2830, -0.0531, -0.0236, -0.0396, -0.0710, -0.4580
1491431867.0373649597,1491431867.0397961140, -0.2830, -0.0531, -0.0236, -0.0396, -0.0710, -0.4502
1491431867.0401721001,1491431867.0425939560, -0.2830, -0.0531, -0.0236, -0.0635, -0.0592, -0.4526
1491431867.0429680347,1491431867.0454020500, -0.2830, -0.0531, -0.0236, -0.0635, -0.0592, -0.4526
1491431867.0457789898,1491431867.0482110977, -0.2830, -0.0531, -0.0236, -0.0635, -0.0592, -0.4526
1491431867.0485849380,1491431867.0510098934, -0.2830, -0.0531, -0.0236, -0.0854, -0.0476, -0.4438
1491431867.0513849258,1491431867.0538079739, -0.2986, -0.0151, -0.0034, -0.0854, -0.0476, -0.4438
1491431867.0541939735,1491431867.0565021038, -0.3029, -0.0151, -0.0034, -0.0854, -0.0476, -0.4438
1491431867.0568718910,1491431867.0591719151, -0.3029, -0.0151, -0.0034, -0.0854, -0.0476, -0.4438
1491431867.0595409870,1491431867.0618441105, -0.3029, -0.0151, -0.0034, -0.1007, -0.0344, -0.4285
1491431867.0622119904,1491431867.0645658970, -0.3029, -0.0151, -0.0034, -0.1007, -0.0344, -0.4285
1491431867.0649418831,1491431867.0673730373, -0.3029, -0.0151, -0.0034, -0.1007, -0.0344, -0.4285
1491431867.0677518845,1491431867.0701789856, -0.3029, -0.0151, -0.0034, -0.1007, -0.0344, -0.4285
1491431867.0705549717,1491431867.0729749203, -0.3029, -0.0151,  0.0139, -0.1098, -0.0197, -0.4018
1491431867.0733520985,1491431867.0757849216, -0.3280,  0.0366,  0.0139, -0.1098, -0.0197, -0.4018
1491431867.0761630535,1491431867.0785939693, -0.3280,  0.0366,  0.0139, -0.1098, -0.0197, -0.4018
1491431867.0789699554,1491431867.0813970566, -0.3280,  0.0366,  0.0139, -0.1098, -0.0041, -0.3665
1491431867.0817730427,1491431867.0842161179, -0.3280,  0.0366,  0.0139, -0.1089, -0.0007, -0.3665
1491431867.0845940113,1491431867.0870170593, -0.3280,  0.0366,  0.0139, -0.1089, -0.0007, -0.3665
1491431867.0875000954,1491431867.0899319649, -0.3280,  0.0366,  0.0139, -0.1089, -0.0007, -0.3665
1491431867.0903089046,1491431867.0927329063, -0.3280,  0.0366,  0.0041, -0.0933,  0.0126, -0.3304
1491431867.0931100845,1491431867.0955770016, -0.3008,  0.0813,  0.0041, -0.0933,  0.0126, -0.3304
1491431867.0959560871,1491431867.0983810425, -0.3008,  0.0813,  0.0041, -0.0933,  0.0126, -0.3304
1491431867.0987579823,1491431867.1011879444, -0.3008,  0.0813,  0.0041, -0.0933,  0.0126, -0.3304
1491431867.1015660763,1491431867.1039841175, -0.3008,  0.0813,  0.0041, -0.0759,  0.0201, -0.2923
1491431867.1044158936,1491431867.1067230701, -0.3008,  0.0813,  0.0041, -0.0759,  0.0201, -0.2923
1491431867.1070940495,1491431867.1093959808, -0.3008,  0.0813,  0.0041, -0.0759,  0.0201, -0.2923
1491431867.1097650528,1491431867.1120669842, -0.3008,  0.0813,  0.0041, -0.0759,  0.0201, -0.2539
1491431867.1124360561,1491431867.1147511005, -0.2445,  0.1048, -0.0215, -0.0610,  0.0223, -0.2539
1491431867.1151220798,1491431867.1174230576, -0.2445,  0.1048, -0.0215, -0.0610,  0.0223, -0.2539
1491431867.1177918911,1491431867.1200890541, -0.2445,  0.1048, -0.0215, -0.0610,  0.0223, -0.2539
1491431867.1204590797,1491431867.1227560043, -0.2445,  0.1048, -0.0215, -0.0610,  0.0245, -0.2146
1491431867.1231260300,1491431867.1255450249, -0.2445,  0.1048, -0.0215, -0.0477,  0.0245, -0.2146
1491431867.1259210110,1491431867.1283531189, -0.2445,  0.1048, -0.0215, -0.0477,  0.0245, -0.2146
1491431867.1287310123,1491431867.1311581135, -0.2445,  0.1048, -0.0215, -0.0477,  0.0245, -0.2146
1491431867.1315350533,1491431867.1339559555, -0.2134,  0.1314, -0.0151, -0.0383,  0.0252, -0.1730
1491431867.1343340874,1491431867.1367659569, -0.2134,  0.1314, -0.0151, -0.0383,  0.0252, -0.1730
1491431867.1371440887,1491431867.1395730972, -0.2134,  0.1314, -0.0151, -0.0383,  0.0252, -0.1730
1491431867.1399478912,1491431867.1423749924, -0.2134,  0.1314, -0.0151, -0.0383,  0.0252, -0.1730
1491431867.1427519321,1491431867.1451969147, -0.2134,  0.1314, -0.0151, -0.0322,  0.0302, -0.1294
1491431867.1455729008,1491431867.1479980946, -0.2134,  0.1314, -0.0151, -0.0322,  0.0302, -0.1294
1491431867.1483728886,1491431867.1508009434, -0.2134,  0.1314, -0.0151, -0.0322,  0.0302, -0.1294
1491431867.1511778831,1491431867.1536030769, -0.2009,  0.1659,  0.0057, -0.0322,  0.0342, -0.0844
1491431867.1539781094,1491431867.1563029289, -0.2009,  0.1659,  0.0057, -0.0203,  0.0342, -0.0844
1491431867.1566729546,1491431867.1589760780, -0.2009,  0.1659,  0.0057, -0.0203,  0.0342, -0.0844
1491431867.1593449116,1491431867.1616449356, -0.2009,  0.1659,  0.0057, -0.0203,  0.0342, -0.0844
1491431867.1620140076,1491431867.1643519402, -0.2009,  0.1659,  0.0057,  0.0005,  0.0344, -0.0379
1491431867.1647300720,1491431867.1671609879, -0.2009,  0.1659,  0.0057,  0.0005,  0.0344, -0.0379
1491431867.1675388813,1491431867.1699628830, -0.2009,  0.1659,  0.0057,  0.0005,  0.0344, -0.0379
1491431867.1703391075,1491431867.1727700233, -0.2009,  0.1836,  0.0126,  0.0005,  0.0344, -0.0379
1491431867.1731450558,1491431867.1755819321, -0.1966,  0.1836,  0.0126,  0.0327,  0.0307,  0.0147
1491431867.1759591103,1491431867.1783859730, -0.1966,  0.1836,  0.0126,  0.0327,  0.0307,  0.0147
1491431867.1787619591,1491431867.1811909676, -0.1966,  0.1836,  0.0126,  0.0327,  0.0307,  0.0147
1491431867.1815660000,1491431867.1839880943, -0.1966,  0.1836,  0.0126,  0.0327,  0.0307,  0.0711
1491431867.1844079494,1491431867.1868309975, -0.1966,  0.1836,  0.0126,  0.0637,  0.0256,  0.0711
1491431867.1872069836,1491431867.1896350384, -0.1966,  0.1836,  0.0126,  0.0637,  0.0256,  0.0711
1491431867.1900091171,1491431867.1924331188, -0.2044,  0.1690,  0.0066,  0.0637,  0.0256,  0.0711
1491431867.1928079128,1491431867.1952440739, -0.2105,  0.1690,  0.0066,  0.0888,  0.0226,  0.1228
1491431867.1956250668,1491431867.1980469227, -0.2105,  0.1690,  0.0066,  0.0888,  0.0226,  0.1228
1491431867.1984241009,1491431867.2008469105, -0.2105,  0.1690,  0.0066,  0.0888,  0.0226,  0.1228
1491431867.2012250423,1491431867.2036569118, -0.2105,  0.1690,  0.0066,  0.0888,  0.0226,  0.1228
1491431867.2041530609,1491431867.2064549923, -0.2105,  0.1690,  0.0066,  0.1389,  0.0325,  0.1516
1491431867.2068259716,1491431867.2091300488, -0.2105,  0.1690,  0.0066,  0.1389,  0.0325,  0.1516
1491431867.2094988823,1491431867.2118020058, -0.2105, -0.0576,  0.0446,  0.1389,  0.0325,  0.1516
1491431867.2121710777,1491431867.2145369053, -0.3949, -0.0572,  0.0446,  0.1389,  0.0325,  0.1516
1491431867.2149119377,1491431867.2173368931, -0.3949, -0.0572,  0.0446,  0.2023,  0.0356,  0.2288
1491431867.2177140713,1491431867.2201418877, -0.3949, -0.0572,  0.0446,  0.2023,  0.0356,  0.2288
1491431867.2205181122,1491431867.2229430676, -0.3949, -0.0572,  0.0446,  0.2023,  0.0356,  0.2288
1491431867.2233181000,1491431867.2257549763, -0.3949, -0.0572,  0.0446,  0.2492,  0.1583,  0.1786
1491431867.2261319160,1491431867.2285609245, -0.3949, -0.0572,  0.0446,  0.2487,  0.1583,  0.1786
1491431867.2289369106,1491431867.2313630581, -0.3949, -0.0572, -0.0787,  0.2487,  0.1583,  0.1786
1491431867.2317380905,1491431867.2341709137, -0.1143, -0.4172, -0.0787,  0.2487,  0.1583,  0.1786
1491431867.2345480919,1491431867.2369720936, -0.1143, -0.4172, -0.0787,  0.1303,  0.0643,  0.1705
1491431867.2373490334,1491431867.2397780418, -0.1143, -0.4172, -0.0787,  0.1303,  0.0643,  0.1705
1491431867.2401530743,1491431867.2425799370, -0.1143, -0.4172, -0.0787,  0.1303,  0.0643,  0.1705
1491431867.2429549694,1491431867.2453949451, -0.1143, -0.4172, -0.0787,  0.1303,  0.0643,  0.1705
1491431867.2457718849,1491431867.2481989861, -0.1143, -0.4172, -0.0787, -0.0203, -0.0216,  0.3805
1491431867.2485749722,1491431867.2509989738, -0.1143, -0.4172,  0.0541, -0.0203, -0.0216,  0.3805
1491431867.2513759136,1491431867.2537949085, -0.1735,  0.0262,  0.0478, -0.0203, -0.0216,  0.3805
1491431867.2541799545,1491431867.2564830780, -0.1735,  0.0262,  0.0478, -0.0203, -0.0712,  0.4667
1491431867.2568531036,1491431867.2591540813, -0.1735,  0.0262,  0.0478, -0.0772, -0.0712,  0.4667
1491431867.2595229149,1491431867.2618288994, -0.1735,  0.0262,  0.0478, -0.0772, -0.0712,  0.4667
1491431867.2621960640,1491431867.2645308971, -0.1735,  0.0262,  0.0478, -0.0772, -0.0712,  0.4667
1491431867.2648999691,1491431867.2671999931, -0.1735,  0.0262,  0.0478, -0.0864, -0.1399,  0.3987
1491431867.2675690651,1491431867.2698779106, -0.1735,  0.0262,  0.0478, -0.0864, -0.1399,  0.3987
1491431867.2702460289,1491431867.2725470066, -0.2643,  0.0720,  0.0594, -0.0864, -0.1399,  0.3987
1491431867.2729179859,1491431867.2753388882, -0.2643,  0.0720,  0.0594, -0.0864, -0.1399,  0.3987
1491431867.2757151127,1491431867.2781469822, -0.2643,  0.0720,  0.0594, -0.0330, -0.1119,  0.3326
1491431867.2785239220,1491431867.2809450626, -0.2643,  0.0720,  0.0594, -0.0330, -0.1119,  0.3326
1491431867.2813210487,1491431867.2837519646, -0.2643,  0.0720,  0.0594, -0.0330, -0.1119,  0.3326
1491431867.2841389179,1491431867.2865650654, -0.2643,  0.0720,  0.0594, -0.0330, -0.1119,  0.3326
1491431867.2869420052,1491431867.2893729210, -0.2643,  0.0720,  0.0594,  0.0185, -0.0723,  0.2997
1491431867.2897479534,1491431867.2921779156, -0.2484,  0.0408,  0.0152,  0.0185, -0.0723,  0.2997
1491431867.2925519943,1491431867.2949841022, -0.2484,  0.0408,  0.0152,  0.0185, -0.0723,  0.2997
1491431867.2953588963,1491431867.2977828979, -0.2484,  0.0408,  0.0152,  0.0575, -0.0307,  0.2492
1491431867.2981569767,1491431867.3005940914, -0.2484,  0.0408,  0.0152,  0.0598, -0.0307,  0.2492
1491431867.3009688854,1491431867.3033940792, -0.2484,  0.0408,  0.0152,  0.0598, -0.0307,  0.2492
1491431867.3037691116,1491431867.3062100410, -0.2484,  0.0408,  0.0152,  0.0598, -0.0307,  0.2492
1491431867.3065869808,1491431867.3090169430, -0.2484,  0.0408,  0.0152,  0.0364, -0.0182,  0.2253
1491431867.3093919754,1491431867.3118200302, -0.1804, -0.0225,  0.0497,  0.0364, -0.0182,  0.2253
1491431867.3121960163,1491431867.3145980835, -0.1804, -0.0225,  0.0497,  0.0364, -0.0182,  0.2253
1491431867.3149669170,1491431867.3172690868, -0.1804, -0.0225,  0.0497,  0.0364, -0.0182,  0.2253
1491431867.3177459240,1491431867.3200469017, -0.1804, -0.0225,  0.0497, -0.0132, -0.0285,  0.2105
1491431867.3204150200,1491431867.3227159977, -0.1804, -0.0225,  0.0497, -0.0132, -0.0285,  0.2105
1491431867.3230829239,1491431867.3254981041, -0.1804, -0.0225,  0.0497, -0.0132, -0.0285,  0.2105
1491431867.3258759975,1491431867.3283069134, -0.1804, -0.0225,  0.0497, -0.0132, -0.0207,  0.1866
1491431867.3286828995,1491431867.3311059475, -0.2038,  0.0196,  0.0475, -0.0303, -0.0190,  0.1866
1491431867.3314809799,1491431867.3339059353, -0.2052,  0.0196,  0.0475, -0.0303, -0.0190,  0.1866
1491431867.3342900276,1491431867.3367190361, -0.2052,  0.0196,  0.0475, -0.0303, -0.0190,  0.1866
1491431867.3370990753,1491431867.3395268917, -0.2052,  0.0196,  0.0475, -0.0275, -0.0067,  0.1704
1491431867.3399050236,1491431867.3423280716, -0.2052,  0.0196,  0.0475, -0.0275, -0.0067,  0.1704
1491431867.3427050114,1491431867.3451499939, -0.2052,  0.0196,  0.0475, -0.0275, -0.0067,  0.1704
1491431867.3455278873,1491431867.3479530811, -0.2052,  0.0196,  0.0475, -0.0275, -0.0067,  0.1704
1491431867.3483290672,1491431867.3507630825, -0.2052,  0.0476,  0.0412, -0.0319,  0.0035,  0.1406
1491431867.3511390686,1491431867.3535680771, -0.2166,  0.0476,  0.0412, -0.0319,  0.0035,  0.1406
1491431867.3539440632,1491431867.3563799858, -0.2166,  0.0476,  0.0412, -0.0319,  0.0035,  0.1406
1491431867.3567590714,1491431867.3591930866, -0.2166,  0.0476,  0.0412, -0.0319,  0.0426,  0.0899
1491431867.3595681190,1491431867.3619940281, -0.2166,  0.0476,  0.0412, -0.0161,  0.0430,  0.0899
1491431867.3623690605,1491431867.3647730350, -0.2166,  0.0476,  0.0412, -0.0161,  0.0430,  0.0899
1491431867.3651440144,1491431867.3674499989, -0.2166,  0.0476,  0.0412, -0.0161,  0.0430,  0.0899
1491431867.3678169250,1491431867.3701159954, -0.2166,  0.0476, -0.0250,  0.0026,  0.0500,  0.0611
1491431867.3704829216,1491431867.3727889061, -0.1800, -0.0075, -0.0250,  0.0026,  0.0500,  0.0611
1491431867.3731598854,1491431867.3755021095, -0.1800, -0.0075, -0.0250,  0.0026,  0.0500,  0.0611
1491431867.3758709431,1491431867.3781690598, -0.1800, -0.0075, -0.0250,  0.0026,  0.0500,  0.0611
1491431867.3785390854,1491431867.3808441162, -0.1800, -0.0075, -0.0250,  0.0038,  0.0384,  0.0523
1491431867.3812160492,1491431867.3835160732, -0.1800, -0.0075, -0.0250,  0.0038,  0.0384,  0.0523
1491431867.3838849068,1491431867.3863520622, -0.1800, -0.0075, -0.0250,  0.0038,  0.0384,  0.0523
1491431867.3867290020,1491431867.3891599178, -0.1800, -0.0075, -0.0250,  0.0038,  0.0384,  0.0523
1491431867.3895390034,1491431867.3919589520, -0.1823, -0.0002, -0.0209,  0.0073,  0.0287,  0.0386
1491431867.3923358917,1491431867.3947811127, -0.1823, -0.0002, -0.0209,  0.0073,  0.0287,  0.0386
1491431867.3951570988,1491431867.3975830078, -0.1823, -0.0002, -0.0209,  0.0073,  0.0287,  0.0386
1491431867.3979580402,1491431867.4003860950, -0.1823, -0.0002, -0.0209,  0.0073,  0.0209,  0.0233
1491431867.4007630348,1491431867.4031929970, -0.1823, -0.0002, -0.0209,  0.0167,  0.0164,  0.0233
1491431867.4035670757,1491431867.4060060978, -0.1823, -0.0002, -0.0209,  0.0167,  0.0164,  0.0233
1491431867.4063799381,1491431867.4088079929, -0.1823, -0.0002, -0.0209,  0.0167,  0.0164,  0.0233
1491431867.4091830254,1491431867.4116110802, -0.1837, -0.0087, -0.0196,  0.0241,  0.0030,  0.0147
1491431867.4119889736,1491431867.4144120216, -0.1837, -0.0087, -0.0196,  0.0241,  0.0030,  0.0147
1491431867.4147810936,1491431867.4170858860, -0.1837, -0.0087, -0.0196,  0.0241,  0.0030,  0.0147
1491431867.4174549580,1491431867.4197499752, -0.1837, -0.0087, -0.0196,  0.0241,  0.0030,  0.0147
1491431867.4201209545,1491431867.4224200249, -0.1837, -0.0087, -0.0196,  0.0273, -0.0107,  0.0114
1491431867.4227890968,1491431867.4251599312, -0.1837, -0.0087, -0.0196,  0.0273, -0.0107,  0.0114
1491431867.4255380630,1491431867.4279620647, -0.1837, -0.0087, -0.0196,  0.0273, -0.0107,  0.0114
1491431867.4283380508,1491431867.4307610989, -0.1895, -0.0110, -0.0006,  0.0273, -0.0107,  0.0114
1491431867.4311380386,1491431867.4335689545, -0.1895, -0.0110, -0.0006,  0.0285, -0.0189,  0.0085
1491431867.4340538979,1491431867.4365680218, -0.1895, -0.0110, -0.0006,  0.0285, -0.0189,  0.0085
1491431867.4369440079,1491431867.4393761158, -0.1895, -0.0110, -0.0006,  0.0285, -0.0189,  0.0085
1491431867.4397530556,1491431867.4421780109, -0.1895, -0.0110, -0.0006,  0.0281, -0.0211,  0.0063
1491431867.4425530434,1491431867.4449810982, -0.1895, -0.0110, -0.0006,  0.0281, -0.0211,  0.0063
1491431867.4453580379,1491431867.4477880001, -0.1895, -0.0110, -0.0006,  0.0281, -0.0211,  0.0063
1491431867.4481649399,1491431867.4505870342, -0.1892, -0.0072,  0.0095,  0.0281, -0.0211,  0.0063
1491431867.4509639740,1491431867.4533898830, -0.1892, -0.0072,  0.0095,  0.0272, -0.0211,  0.0037
1491431867.4537680149,1491431867.4562070370, -0.1892, -0.0072,  0.0095,  0.0272, -0.0211,  0.0037
1491431867.4565870762,1491431867.4590110779, -0.1892, -0.0072,  0.0095,  0.0272, -0.0211,  0.0037
1491431867.4593889713,1491431867.4618170261, -0.1892, -0.0072,  0.0095,  0.0272, -0.0211,  0.0002
1491431867.4621939659,1491431867.4646039009, -0.1892, -0.0072,  0.0095,  0.0275, -0.0189,  0.0002
1491431867.4649739265,1491431867.4672729969, -0.1892, -0.0072,  0.0095,  0.0275, -0.0189,  0.0002
1491431867.4676439762,1491431867.4699509144, -0.1900, -0.0088,  0.0157,  0.0275, -0.0189,  0.0002
1491431867.4703190327,1491431867.4726159573, -0.1900, -0.0088,  0.0157,  0.0275, -0.0152, -0.0038
1491431867.4729840755,1491431867.4753849506, -0.1900, -0.0088,  0.0157,  0.0285, -0.0152, -0.0038
1491431867.4757640362,1491431867.4781939983, -0.1900, -0.0088,  0.0157,  0.0285, -0.0152, -0.0038
1491431867.4785709381,1491431867.4809949398, -0.1900, -0.0088,  0.0157,  0.0285, -0.0152, -0.0038
1491431867.4813721180,1491431867.4838049412, -0.1900, -0.0088,  0.0157,  0.0284, -0.0094, -0.0063
1491431867.4841909409,1491431867.4866180420, -0.1900, -0.0088,  0.0157,  0.0284, -0.0094, -0.0063
1491431867.4869959354,1491431867.4894270897, -0.1900, -0.0087,  0.0194,  0.0284, -0.0094, -0.0063
1491431867.4898040295,1491431867.4922370911, -0.1890, -0.0087,  0.0194,  0.0284, -0.0094, -0.0063
1491431867.4926140308,1491431867.4950540066, -0.1890, -0.0087,  0.0194,  0.0304, -0.0042, -0.0071
1491431867.4954309464,1491431867.4978539944, -0.1890, -0.0087,  0.0194,  0.0304, -0.0042, -0.0071
1491431867.4982318878,1491431867.5006670952, -0.1890, -0.0087,  0.0194,  0.0304, -0.0042, -0.0071
1491431867.5010449886,1491431867.5034730434, -0.1890, -0.0087,  0.0194,  0.0304,  0.0003, -0.0104
1491431867.5038490295,1491431867.5063281059, -0.1890, -0.0087,  0.0194,  0.0328,  0.0003, -0.0104
1491431867.5067069530,1491431867.5091319084, -0.1890, -0.0087,  0.0197,  0.0328,  0.0003, -0.0104
1491431867.5095069408,1491431867.5119318962, -0.1897, -0.0093,  0.0197,  0.0328,  0.0003, -0.0104
1491431867.5123069286,1491431867.5147199631, -0.1897, -0.0093,  0.0197,  0.0350,  0.0049, -0.0145
1491431867.5150890350,1491431867.5173869133, -0.1897, -0.0093,  0.0197,  0.0350,  0.0049, -0.0145
1491431867.5177590847,1491431867.5200579166, -0.1897, -0.0093,  0.0197,  0.0350,  0.0049, -0.0145
1491431867.5204279423,1491431867.5227320194, -0.1897, -0.0093,  0.0197,  0.0350,  0.0049, -0.0145
1491431867.5231010914,1491431867.5255239010, -0.1897, -0.0093,  0.0197,  0.0360,  0.0082, -0.0157
1491431867.5259010792,1491431867.5283279419, -0.1897, -0.0093,  0.0197,  0.0360,  0.0082, -0.0157
1491431867.5287089348,1491431867.5311279297, -0.1877, -0.0132,  0.0160,  0.0360,  0.0082, -0.0157
1491431867.5315051079,1491431867.5339291096, -0.1877, -0.0132,  0.0160,  0.0360,  0.0082, -0.0160
1491431867.5343139172,1491431867.5367450714, -0.1877, -0.0132,  0.0160,  0.0332,  0.0096, -0.0160
1491431867.5371210575,1491431867.5395460129, -0.1877, -0.0132,  0.0160,  0.0332,  0.0096, -0.0160
1491431867.5399219990,1491431867.5423529148, -0.1877, -0.0132,  0.0160,  0.0332,  0.0096, -0.0160
1491431867.5427300930,1491431867.5451779366, -0.1877, -0.0132,  0.0160,  0.0300,  0.0097, -0.0146
1491431867.5455551147,1491431867.5479810238, -0.1877, -0.0132,  0.0160,  0.0300,  0.0097, -0.0146
1491431867.5483601093,1491431867.5507938862, -0.1893, -0.0163,  0.0203,  0.0300,  0.0097, -0.0146
1491431867.5512781143,1491431867.5537080765, -0.1893, -0.0163,  0.0203,  0.0300,  0.0097, -0.0146
1491431867.5540940762,1491431867.5563919544, -0.1893, -0.0163,  0.0203,  0.0298,  0.0120, -0.0126
1491431867.5567610264,1491431867.5590660572, -0.1893, -0.0163,  0.0203,  0.0298,  0.0120, -0.0126
1491431867.5594348907,1491431867.5617361069, -0.1893, -0.0163,  0.0203,  0.0298,  0.0120, -0.0126
1491431867.5621039867,1491431867.5644290447, -0.1893, -0.0163,  0.0203,  0.0298,  0.0120, -0.0126
1491431867.5648050308,1491431867.5672318935, -0.1893, -0.0163,  0.0203,  0.0264,  0.0133, -0.0082
1491431867.5676081181,1491431867.5700299740, -0.1874, -0.0188,  0.0164,  0.0264,  0.0133, -0.0082
1491431867.5704069138,1491431867.5728371143, -0.1874, -0.0188,  0.0164,  0.0264,  0.0133, -0.0082
1491431867.5732140541,1491431867.5756449699, -0.1874, -0.0188,  0.0164,  0.0186,  0.0132, -0.0033
1491431867.5760209560,1491431867.5784430504, -0.1874, -0.0188,  0.0164,  0.0203,  0.0132, -0.0033
1491431867.5788209438,1491431867.5812439919, -0.1874, -0.0188,  0.0164,  0.0203,  0.0132, -0.0033
1491431867.5816199780,1491431867.5840439796, -0.1874, -0.0188,  0.0164,  0.0203,  0.0132, -0.0033
1491431867.5844678879,1491431867.5868959427, -0.1874, -0.0188,  0.0164,  0.0177,  0.0140,  0.0006
1491431867.5872719288,1491431867.5897009373, -0.1869, -0.0234,  0.0154,  0.0177,  0.0140,  0.0006
1491431867.5900759697,1491431867.5925049782, -0.1869, -0.0234,  0.0154,  0.0177,  0.0140,  0.0006
1491431867.5928809643,1491431867.5953559875, -0.1869, -0.0234,  0.0154,  0.0177,  0.0140,  0.0006
1491431867.5957319736,1491431867.5981578827, -0.1869, -0.0234,  0.0154,  0.0157,  0.0129,  0.0059
1491431867.5985341072,1491431867.6009550095, -0.1869, -0.0234,  0.0154,  0.0157,  0.0129,  0.0059
1491431867.6013329029,1491431867.6037619114, -0.1869, -0.0234,  0.0154,  0.0157,  0.0129,  0.0059
1491431867.6041469574,1491431867.6064519882, -0.1869, -0.0234,  0.0154,  0.0078,  0.0115,  0.0106
1491431867.6068220139,1491431867.6091229916, -0.1891, -0.0116,  0.0135,  0.0127,  0.0115,  0.0106
1491431867.6094911098,1491431867.6117939949, -0.1891, -0.0116,  0.0135,  0.0127,  0.0115,  0.0106
1491431867.6121609211,1491431867.6145050526, -0.1891, -0.0116,  0.0135,  0.0127,  0.0115,  0.0106
1491431867.6148729324,1491431867.6171739101, -0.1891, -0.0116,  0.0135,  0.0148,  0.0130,  0.0127
1491431867.6175420284,1491431867.6198410988, -0.1891, -0.0116,  0.0135,  0.0148,  0.0130,  0.0127
1491431867.6202089787,1491431867.6225070953, -0.1891, -0.0116,  0.0135,  0.0148,  0.0130,  0.0127
1491431867.6228740215,1491431867.6252589226, -0.1891, -0.0116,  0.0135,  0.0148,  0.0130,  0.0127
1491431867.6256339550,1491431867.6280651093, -0.1891, -0.0162,  0.0161,  0.0168,  0.0132,  0.0137
1491431867.6284399033,1491431867.6308600903, -0.1894, -0.0162,  0.0161,  0.0168,  0.0132,  0.0137
1491431867.6312370300,1491431867.6336660385, -0.1894, -0.0162,  0.0161,  0.0168,  0.0132,  0.0137
1491431867.6340410709,1491431867.6365060806, -0.1894, -0.0162,  0.0161,  0.0168,  0.0132,  0.0215
1491431867.6368799210,1491431867.6393079758, -0.1894, -0.0162,  0.0161,  0.0172,  0.0143,  0.0180
1491431867.6396849155,1491431867.6421101093, -0.1894, -0.0162,  0.0161,  0.0172,  0.0143,  0.0180
1491431867.6424849033,1491431867.6449170113, -0.1894, -0.0162,  0.0161,  0.0172,  0.0143,  0.0180
1491431867.6452910900,1491431867.6477160454, -0.1894, -0.0084,  0.0133,  0.0172,  0.0156,  0.0222
1491431867.6480939388,1491431867.6505179405, -0.1890, -0.0131,  0.0133,  0.0178,  0.0156,  0.0222
1491431867.6508929729,1491431867.6533188820, -0.1890, -0.0131,  0.0133,  0.0178,  0.0156,  0.0222
1491431867.6536939144,1491431867.6561329365, -0.1890, -0.0131,  0.0133,  0.0178,  0.0156,  0.0222
1491431867.6565070152,1491431867.6589300632, -0.1890, -0.0131,  0.0133,  0.0165,  0.0175,  0.0264
1491431867.6593070030,1491431867.6617369652, -0.1890, -0.0131,  0.0133,  0.0165,  0.0175,  0.0264
1491431867.6621119976,1491431867.6645290852, -0.1890, -0.0131,  0.0133,  0.0165,  0.0175,  0.0264
1491431867.6648960114,1491431867.6671979427, -0.1890, -0.0131,  0.0154,  0.0165,  0.0175,  0.0264
1491431867.6676740646,1491431867.6699779034, -0.1913, -0.0154,  0.0154,  0.0167,  0.0191,  0.0289
1491431867.6703460217,1491431867.6726479530, -0.1913, -0.0154,  0.0154,  0.0167,  0.0191,  0.0289
1491431867.6730151176,1491431867.6753950119, -0.1913, -0.0154,  0.0154,  0.0167,  0.0191,  0.0289
1491431867.6757700443,1491431867.6781980991, -0.1913, -0.0154,  0.0154,  0.0167,  0.0191,  0.0341
1491431867.6785728931,1491431867.6809990406, -0.1913, -0.0154,  0.0154,  0.0157,  0.0189,  0.0341
1491431867.6813728809,1491431867.6838059425, -0.1913, -0.0154,  0.0154,  0.0157,  0.0189,  0.0341
1491431867.6841890812,1491431867.6866190434, -0.1913, -0.0154,  0.0154,  0.0157,  0.0189,  0.0341
1491431867.6869928837,1491431867.6894199848, -0.1941, -0.0081,  0.0153,  0.0185,  0.0207,  0.0383
1491431867.6898000240,1491431867.6922268867, -0.1941, -0.0081,  0.0153,  0.0185,  0.0207,  0.0383
1491431867.6926031113,1491431867.6950309277, -0.1941, -0.0081,  0.0153,  0.0185,  0.0207,  0.0383
1491431867.6954069138,1491431867.6978390217, -0.1941, -0.0081,  0.0153,  0.0185,  0.0207,  0.0383
1491431867.6982169151,1491431867.7006480694, -0.1941, -0.0081,  0.0153,  0.0186,  0.0247,  0.0400
1491431867.7010250092,1491431867.7034521103, -0.1941, -0.0081,  0.0153,  0.0186,  0.0247,  0.0400
1491431867.7038280964,1491431867.7062659264, -0.1941, -0.0081,  0.0153,  0.0186,  0.0247,  0.0400
1491431867.7066431046,1491431867.7090749741, -0.1923, -0.0023,  0.0050,  0.0186,  0.0247,  0.0392
1491431867.7094540596,1491431867.7118799686, -0.1923, -0.0023,  0.0050,  0.0219,  0.0258,  0.0392
1491431867.7122550011,1491431867.7146968842, -0.1923, -0.0023,  0.0050,  0.0219,  0.0258,  0.0392
1491431867.7150659561,1491431867.7173678875, -0.1923, -0.0023,  0.0050,  0.0219,  0.0258,  0.0392
1491431867.7177379131,1491431867.7201499939, -0.1923, -0.0023,  0.0050,  0.0241,  0.0281,  0.0372
1491431867.7205209732,1491431867.7228300571, -0.1923, -0.0023,  0.0050,  0.0241,  0.0281,  0.0372
1491431867.7232000828,1491431867.7255899906, -0.1923, -0.0023,  0.0050,  0.0241,  0.0281,  0.0372
1491431867.7259650230,1491431867.7283630371, -0.1977, -0.0025,  0.0108,  0.0241,  0.0281,  0.0372
1491431867.7288129330,1491431867.7312500477, -0.1977, -0.0025,  0.0108,  0.0231,  0.0296,  0.0370
1491431867.7316269875,1491431867.7340409756, -0.1977, -0.0025,  0.0108,  0.0231,  0.0296,  0.0370
1491431867.7344698906,1491431867.7368659973, -0.1977, -0.0025,  0.0108,  0.0231,  0.0296,  0.0370
1491431867.7372400761,1491431867.7396690845, -0.1977, -0.0025,  0.0108,  0.0231,  0.0296,  0.0370
1491431867.7400450706,1491431867.7424690723, -0.1977, -0.0025,  0.0108,  0.0263,  0.0312,  0.0370
1491431867.7428460121,1491431867.7453210354, -0.1977, -0.0025,  0.0108,  0.0263,  0.0312,  0.0370
1491431867.7456960678,1491431867.7481219769, -0.1940, -0.0021,  0.0203,  0.0263,  0.0312,  0.0370
1491431867.7485010624,1491431867.7509250641, -0.1940, -0.0021,  0.0203,  0.0200,  0.0328,  0.0394
1491431867.7513020039,1491431867.7537291050, -0.1940, -0.0021,  0.0203,  0.0200,  0.0328,  0.0394
1491431867.7541160583,1491431867.7565450668, -0.1940, -0.0021,  0.0203,  0.0200,  0.0328,  0.0394
1491431867.7569220066,1491431867.7593500614, -0.1940, -0.0021,  0.0203,  0.0200,  0.0328,  0.0394
1491431867.7597250938,1491431867.7621428967, -0.1940, -0.0021,  0.0203,  0.0163,  0.0400,  0.0431
1491431867.7625210285,1491431867.7649180889, -0.1940, -0.0021,  0.0203,  0.0163,  0.0400,  0.0431
1491431867.7652869225,1491431867.7675879002, -0.2013, -0.0121,  0.0185,  0.0163,  0.0400,  0.0431
1491431867.7679569721,1491431867.7702600956, -0.2013, -0.0121,  0.0185,  0.0163,  0.0400,  0.0509
1491431867.7706270218,1491431867.7729339600, -0.2013, -0.0121,  0.0185,  0.0172,  0.0457,  0.0521
1491431867.7733020782,1491431867.7757298946, -0.2013, -0.0121,  0.0185,  0.0172,  0.0457,  0.0521
1491431867.7761058807,1491431867.7785279751, -0.2013, -0.0121,  0.0185,  0.0172,  0.0457,  0.0521
1491431867.7789030075,1491431867.7813370228, -0.2013, -0.0121,  0.0185,  0.0172,  0.0503,  0.0669
1491431867.7817120552,1491431867.7841470242, -0.2013, -0.0121,  0.0185,  0.0121,  0.0503,  0.0669
1491431867.7846369743,1491431867.7870640755, -0.1974, -0.0049,  0.0163,  0.0121,  0.0503,  0.0669
1491431867.7874419689,1491431867.7898681164, -0.1974, -0.0049,  0.0163,  0.0121,  0.0503,  0.0669
1491431867.7902419567,1491431867.7926659584, -0.1974, -0.0049,  0.0163,  0.0147,  0.0485,  0.0780
1491431867.7930419445,1491431867.7955191135, -0.1974, -0.0049,  0.0163,  0.0147,  0.0485,  0.0780
1491431867.7958960533,1491431867.7983179092, -0.1974, -0.0049,  0.0163,  0.0147,  0.0485,  0.0780
1491431867.7986938953,1491431867.8011150360, -0.1974, -0.0049,  0.0163,  0.0147,  0.0485,  0.0858
1491431867.8014919758,1491431867.8039209843, -0.1974, -0.0049,  0.0163,  0.0245,  0.0376,  0.0829
1491431867.8043079376,1491431867.8067359924, -0.2287, -0.0206, -0.0242,  0.0245,  0.0376,  0.0829
1491431867.8071100712,1491431867.8095390797, -0.2333, -0.0206, -0.0242,  0.0245,  0.0376,  0.0829
1491431867.8099141121,1491431867.8123459816, -0.2333, -0.0206, -0.0242,  0.0402,  0.0148,  0.0926
1491431867.8127219677,1491431867.8151080608, -0.2333, -0.0206, -0.0242,  0.0438,  0.0148,  0.0926
1491431867.8154790401,1491431867.8177831173, -0.2333, -0.0206, -0.0242,  0.0438,  0.0148,  0.0926
1491431867.8181509972,1491431867.8204519749, -0.2333, -0.0206, -0.0242,  0.0438,  0.0148,  0.0926
1491431867.8208189011,1491431867.8231201172, -0.2333, -0.0206, -0.0242,  0.0472,  0.0041,  0.1158
1491431867.8234889507,1491431867.8259310722, -0.2333, -0.0206, -0.0357,  0.0472,  0.0041,  0.1158
1491431867.8263080120,1491431867.8287279606, -0.3160, -0.0862, -0.0357,  0.0472,  0.0041,  0.1158
1491431867.8291049004,1491431867.8315300941, -0.3160, -0.0862, -0.0357,  0.0472,  0.0041,  0.1158
1491431867.8319060802,1491431867.8343501091, -0.3160, -0.0862, -0.0357,  0.0622, -0.0013,  0.1586
1491431867.8347280025,1491431867.8371529579, -0.3160, -0.0862, -0.0357,  0.0622, -0.0013,  0.1586
1491431867.8375329971,1491431867.8399670124, -0.3160, -0.0862, -0.0357,  0.0622, -0.0013,  0.1586
1491431867.8403439522,1491431867.8427679539, -0.3160, -0.0862, -0.0357,  0.0622,  0.0066,  0.1999
1491431867.8431448936,1491431867.8455719948, -0.3160, -0.0862,  0.0090,  0.0542,  0.0063,  0.1999
1491431867.8459520340,1491431867.8483800888, -0.2567, -0.0365,  0.0090,  0.0542,  0.0063,  0.1999
1491431867.8487560749,1491431867.8511760235, -0.2567, -0.0365,  0.0090,  0.0542,  0.0063,  0.1999
1491431867.8515529633,1491431867.8539850712, -0.2567, -0.0365,  0.0090,  0.0759, -0.0110,  0.2205
1491431867.8544080257,1491431867.8568389416, -0.2567, -0.0365,  0.0090,  0.0759, -0.0110,  0.2205
1491431867.8572180271,1491431867.8596389294, -0.2567, -0.0365,  0.0090,  0.0759, -0.0110,  0.2205
1491431867.8600149155,1491431867.8624401093, -0.2567, -0.0365,  0.0090,  0.0759, -0.0110,  0.2205
1491431867.8628180027,1491431867.8652040958, -0.2567, -0.0365, -0.0222,  0.0746, -0.0149,  0.2499
1491431867.8655750751,1491431867.8678719997, -0.3068, -0.0821, -0.0221,  0.0746, -0.0149,  0.2499
1491431867.8682410717,1491431867.8705449104, -0.3068, -0.0821, -0.0221,  0.0746, -0.0149,  0.2499
1491431867.8709139824,1491431867.8732140064, -0.3068, -0.0821, -0.0221,  0.0746, -0.0149,  0.2890
1491431867.8735830784,1491431867.8758940697, -0.3068, -0.0821, -0.0221,  0.0626, -0.0067,  0.2858
1491431867.8762640953,1491431867.8785610199, -0.3068, -0.0821, -0.0221,  0.0626, -0.0067,  0.2858
1491431867.8789319992,1491431867.8812251091, -0.3068, -0.0821, -0.0221,  0.0626, -0.0067,  0.2858
1491431867.8815939426,1491431867.8838939667, -0.3068, -0.0821, -0.0221,  0.0626,  0.0012,  0.3230
1491431867.8842821121,1491431867.8867020607, -0.2467, -0.1086,  0.0061,  0.1019,  0.0076,  0.3230
1491431867.8870799541,1491431867.8895030022, -0.2467, -0.1086,  0.0061,  0.1019,  0.0076,  0.3230
1491431867.8898808956,1491431867.8923070431, -0.2467, -0.1086,  0.0061,  0.1019,  0.0076,  0.3230
1491431867.8926839828,1491431867.8951230049, -0.2467, -0.1086,  0.0061,  0.1316, -0.0104,  0.3743
1491431867.8955020905,1491431867.8979249001, -0.2467, -0.1086,  0.0061,  0.1316, -0.0104,  0.3743
1491431867.8984050751,1491431867.9008369446, -0.2467, -0.1086,  0.0061,  0.1316, -0.0104,  0.3743
1491431867.9012138844,1491431867.9036378860, -0.2467, -0.1086,  0.0061,  0.1316, -0.0104,  0.3743
1491431867.9040150642,1491431867.9064500332, -0.2566, -0.1229,  0.0366,  0.1587, -0.0566,  0.4387
1491431867.9068260193,1491431867.9092528820, -0.2566, -0.1229,  0.0366,  0.1587, -0.0566,  0.4387
1491431867.9096291065,1491431867.9120559692, -0.2566, -0.1229,  0.0366,  0.1587, -0.0566,  0.4387
1491431867.9124329090,1491431867.9148700237, -0.2566, -0.1229,  0.0366,  0.1587, -0.0722,  0.5084
1491431867.9152390957,1491431867.9175388813, -0.2566, -0.1229,  0.0366,  0.2105, -0.0765,  0.5084
1491431867.9179089069,1491431867.9202120304, -0.2566, -0.1229,  0.0366,  0.2105, -0.0765,  0.5084
1491431867.9205820560,1491431867.9228858948, -0.2566, -0.1229,  0.0366,  0.2105, -0.0765,  0.5084
1491431867.9232540131,1491431867.9256439209, -0.3303, -0.1467,  0.1349,  0.2329, -0.1384,  0.5891
1491431867.9260179996,1491431867.9284429550, -0.3303, -0.1467,  0.1349,  0.2329, -0.1384,  0.5891
1491431867.9288170338,1491431867.9312410355, -0.3303, -0.1467,  0.1349,  0.2329, -0.1384,  0.5891
1491431867.9316170216,1491431867.9340391159, -0.3303, -0.1467,  0.1349,  0.2329, -0.1384,  0.5891
1491431867.9344630241,1491431867.9368898869, -0.3303, -0.1467,  0.1349,  0.1728, -0.1941,  0.6717
1491431867.9372661114,1491431867.9396879673, -0.3303, -0.1467,  0.1349,  0.1728, -0.1941,  0.6717
1491431867.9400639534,1491431867.9424929619, -0.3303, -0.1467,  0.1349,  0.1728, -0.1941,  0.6717
1491431867.9428660870,1491431867.9453089237, -0.4553,  0.0221,  0.0742,  0.1728, -0.1941,  0.7420
1491431867.9456849098,1491431867.9481070042, -0.4592,  0.0221,  0.0742,  0.0409, -0.1094,  0.7417
1491431867.9484839439,1491431867.9509129524, -0.4592,  0.0221,  0.0742,  0.0409, -0.1094,  0.7417
1491431867.9512879848,1491431867.9537100792, -0.4592,  0.0221,  0.0742,  0.0409, -0.1094,  0.7417
1491431867.9540948868,1491431867.9565160275, -0.4592,  0.0221,  0.0742,  0.0109, -0.0438,  0.7652
1491431867.9568920135,1491431867.9593200684, -0.4592,  0.0221,  0.0742,  0.0109, -0.0438,  0.7652
1491431867.9596951008,1491431867.9621200562, -0.4592,  0.0221,  0.0742,  0.0109, -0.0438,  0.7652
1491431867.9624938965,1491431867.9648900032, -0.4592,  0.0473,  0.0967,  0.0109, -0.0438,  0.7652
1491431867.9652590752,1491431867.9675660133, -0.4302,  0.0473,  0.0967,  0.0828, -0.0175,  0.7233
1491431867.9679379463,1491431867.9702379704, -0.4302,  0.0473,  0.0967,  0.0828, -0.0175,  0.7233
1491431867.9706079960,1491431867.9729130268, -0.4302,  0.0473,  0.0967,  0.0828, -0.0175,  0.7233
1491431867.9732820988,1491431867.9757170677, -0.4302,  0.0473,  0.0967,  0.0828, -0.0175,  0.7233
1491431867.9760921001,1491431867.9785161018, -0.4302,  0.0473,  0.0967,  0.1056,  0.0201,  0.6878
1491431867.9788939953,1491431867.9813210964, -0.4302,  0.0473,  0.0967,  0.1056,  0.0201,  0.6878
1491431867.9816958904,1491431867.9841339588, -0.4302,  0.0473,  0.0342,  0.1056,  0.0201,  0.6878
1491431867.9845089912,1491431867.9869349003, -0.2721, -0.0803,  0.0323,  0.1056, -0.0033,  0.6268
1491431867.9873108864,1491431867.9897429943, -0.2721, -0.0803,  0.0323,  0.0963, -0.0014,  0.6268
1491431867.9901208878,1491431867.9925448895, -0.2721, -0.0803,  0.0323,  0.0963, -0.0014,  0.6268
1491431867.9929220676,1491431867.9953629971, -0.2721, -0.0803,  0.0323,  0.0963, -0.0014,  0.6268
1491431867.9957399368,1491431867.9981670380, -0.2721, -0.0803,  0.0323,  0.1151, -0.0481,  0.5660
1491431867.9985458851,1491431868.0009689331, -0.2721, -0.0803,  0.0323,  0.1151, -0.0481,  0.5660
1491431868.0013461113,1491431868.0037789345, -0.2721, -0.0803, -0.0223,  0.1151, -0.0481,  0.5660
1491431868.0041658878,1491431868.0064640045, -0.1906, -0.1011, -0.0185,  0.1151, -0.0481,  0.5660
1491431868.0068340302,1491431868.0091359615, -0.1906, -0.1011, -0.0185,  0.1502, -0.0316,  0.5489
1491431868.0095050335,1491431868.0118119717, -0.1906, -0.1011, -0.0185,  0.1502, -0.0316,  0.5489
1491431868.0121839046,1491431868.0145249367, -0.1906, -0.1011, -0.0185,  0.1502, -0.0316,  0.5489
1491431868.0150020123,1491431868.0173110962, -0.1906, -0.1011, -0.0185,  0.1502, -0.0316,  0.4707
1491431868.0176799297,1491431868.0199770927, -0.1906, -0.1011, -0.0185,  0.1217,  0.0188,  0.4753
1491431868.0203480721,1491431868.0226368904, -0.1906, -0.1011, -0.0185,  0.1217,  0.0188,  0.4753
1491431868.0230081081,1491431868.0255069733, -0.0227,  0.0489,  0.0412,  0.1217,  0.0188,  0.4753
1491431868.0258820057,1491431868.0282909870, -0.0227,  0.0489,  0.0412,  0.1217,  0.0274,  0.2240
1491431868.0286641121,1491431868.0310730934, -0.0227,  0.0489,  0.0412,  0.1397,  0.0274,  0.2240
1491431868.0314478874,1491431868.0338640213, -0.0227,  0.0489,  0.0412,  0.1397,  0.0274,  0.2240
1491431868.0342481136,1491431868.0366621017, -0.0227,  0.0489,  0.0412,  0.1397,  0.0274,  0.2240
1491431868.0370349884,1491431868.0394508839, -0.0227,  0.0489,  0.0412,  0.0792,  0.0323,  0.0385
1491431868.0398249626,1491431868.0422360897, -0.0227,  0.0489,  0.0412,  0.0792,  0.0323,  0.0385
1491431868.0426080227,1491431868.0450260639, -0.1031, -0.0491,  0.0356,  0.0792,  0.0323,  0.0385
1491431868.0454010963,1491431868.0478169918, -0.1031, -0.0491,  0.0356,  0.0792,  0.0323,  0.0385
1491431868.0481920242,1491431868.0506019592, -0.1031, -0.0491,  0.0356, -0.0084,  0.0903, -0.0746
1491431868.0509779453,1491431868.0533881187, -0.1031, -0.0491,  0.0356, -0.0084,  0.0903, -0.0746
1491431868.0537629128,1491431868.0561950207, -0.1031, -0.0491,  0.0356, -0.0084,  0.0903, -0.0746
1491431868.0565710068,1491431868.0589859486, -0.1031, -0.0491,  0.0356, -0.0084,  0.1060, -0.1397
1491431868.0593619347,1491431868.0617809296, -0.1031, -0.0491,  0.0356, -0.0363,  0.1038, -0.1397
1491431868.0621581078,1491431868.0645790100, -0.1254, -0.0594, -0.0010, -0.0363,  0.1038, -0.1397
1491431868.0649559498,1491431868.0673658848, -0.1254, -0.0594, -0.0010, -0.0363,  0.1038, -0.1397
1491431868.0677409172,1491431868.0701611042, -0.1254, -0.0594, -0.0010, -0.0640,  0.1178, -0.1653
1491431868.0705380440,1491431868.0729498863, -0.1254, -0.0594, -0.0010, -0.0640,  0.1178, -0.1653
1491431868.0733249187,1491431868.0757579803, -0.1254, -0.0594, -0.0010, -0.0640,  0.1178, -0.1653
1491431868.0761370659,1491431868.0785648823, -0.1254, -0.0594, -0.0010, -0.0640,  0.1178, -0.1653
1491431868.0789430141,1491431868.0813689232, -0.1254, -0.0594, -0.0010, -0.0762,  0.1214, -0.1749
1491431868.0817449093,1491431868.0841848850, -0.0849, -0.0392, -0.0004, -0.0762,  0.1214, -0.1749
1491431868.0845599174,1491431868.0869839191, -0.0849, -0.0392, -0.0004, -0.0762,  0.1214, -0.1749
1491431868.0873599052,1491431868.0897800922, -0.0849, -0.0392, -0.0004, -0.0762,  0.1136, -0.1910
1491431868.0901579857,1491431868.0925920010, -0.0849, -0.0392, -0.0004, -0.0820,  0.1165, -0.1910
1491431868.0929689407,1491431868.0954010487, -0.0849, -0.0392, -0.0004, -0.0820,  0.1165, -0.1910
1491431868.0957789421,1491431868.0982060432, -0.0849, -0.0392, -0.0004, -0.0820,  0.1165, -0.1910
1491431868.0985848904,1491431868.1010150909, -0.0849, -0.0392, -0.0004, -0.0874,  0.1127, -0.2230
1491431868.1013910770,1491431868.1038129330, -0.0693, -0.0234,  0.0052, -0.0874,  0.1127, -0.2230
1491431868.1041989326,1491431868.1066319942, -0.0647, -0.0234,  0.0052, -0.0874,  0.1127, -0.2230
1491431868.1070089340,1491431868.1094379425, -0.0647, -0.0234,  0.0052, -0.0874,  0.1127, -0.2230
1491431868.1098148823,1491431868.1122419834, -0.0647, -0.0234,  0.0052, -0.0906,  0.1109, -0.2675
1491431868.1126179695,1491431868.1150529385, -0.0647, -0.0234,  0.0052, -0.0906,  0.1109, -0.2675
1491431868.1154251099,1491431868.1177198887, -0.0647, -0.0234,  0.0052, -0.0906,  0.1109, -0.2675
1491431868.1180911064,1491431868.1203970909, -0.0647, -0.0234,  0.0052, -0.0906,  0.1109, -0.3198
1491431868.1207680702,1491431868.1230750084, -0.0647, -0.0234,  0.0129, -0.0993,  0.1110, -0.3198
1491431868.1234450340,1491431868.1257510185, -0.0611, -0.0222,  0.0129, -0.0993,  0.1110, -0.3198
1491431868.1261210442,1491431868.1284229755, -0.0611, -0.0222,  0.0129, -0.0993,  0.1110, -0.3198
1491431868.1287920475,1491431868.1310899258, -0.0611, -0.0222,  0.0129, -0.0993,  0.1113, -0.3737
1491431868.1315701008,1491431868.1338710785, -0.0611, -0.0222,  0.0129, -0.1082,  0.1113, -0.3737
1491431868.1342549324,1491431868.1366789341, -0.0611, -0.0222,  0.0129, -0.1082,  0.1113, -0.3737
1491431868.1370561123,1491431868.1394801140, -0.0611, -0.0222,  0.0129, -0.1082,  0.1113, -0.3737
1491431868.1398570538,1491431868.1422851086, -0.0611, -0.0222,  0.0129, -0.1151,  0.1099, -0.4240
1491431868.1426620483,1491431868.1451370716, -0.0773, -0.0217,  0.0240, -0.1151,  0.1099, -0.4240
1491431868.1455140114,1491431868.1479411125, -0.0773, -0.0217,  0.0240, -0.1151,  0.1099, -0.4240
1491431868.1483180523,1491431868.1507449150, -0.0773, -0.0217,  0.0240, -0.1151,  0.1099, -0.4240
1491431868.1511240005,1491431868.1535470486, -0.0773, -0.0217,  0.0240, -0.1180,  0.1038, -0.4681
1491431868.1539239883,1491431868.1563570499, -0.0773, -0.0217,  0.0240, -0.1180,  0.1038, -0.4681
1491431868.1567308903,1491431868.1591560841, -0.0773, -0.0217,  0.0240, -0.1180,  0.1038, -0.4681
1491431868.1595320702,1491431868.1619620323, -0.0773, -0.0217,  0.0240, -0.1180,  0.0966, -0.5041
1491431868.1623399258,1491431868.1647460461, -0.1069, -0.0186,  0.0277, -0.1180,  0.0966, -0.5041
1491431868.1651170254,1491431868.1674239635, -0.1069, -0.0186,  0.0277, -0.1180,  0.0966, -0.5041
1491431868.1677939892,1491431868.1700921059, -0.1069, -0.0186,  0.0277, -0.1180,  0.0966, -0.5041
1491431868.1704630852,1491431868.1727700233, -0.1069, -0.0186,  0.0277, -0.1121,  0.0904, -0.5366
1491431868.1731410027,1491431868.1755590439, -0.1069, -0.0186,  0.0277, -0.1121,  0.0904, -0.5366
1491431868.1759369373,1491431868.1783618927, -0.1069, -0.0186,  0.0277, -0.1121,  0.0904, -0.5366
1491431868.1787390709,1491431868.1811699867, -0.1069, -0.0186,  0.0277, -0.1121,  0.0904, -0.5366
1491431868.1815481186,1491431868.1839718819, -0.1228, -0.0174,  0.0369, -0.1103,  0.0857, -0.5646
1491431868.1850531101,1491431868.1873540878, -0.1228, -0.0174,  0.0369, -0.1103,  0.0857, -0.5646
1491431868.1877250671,1491431868.1900210381, -0.1228, -0.0174,  0.0369, -0.1103,  0.0857, -0.5646
1491431868.1903920174,1491431868.1926889420, -0.1228, -0.0174,  0.0369, -0.1103,  0.0857, -0.5857
1491431868.1930599213,1491431868.1953630447, -0.1228, -0.0174,  0.0369, -0.1121,  0.0784, -0.5857
1491431868.1957321167,1491431868.1980259418, -0.1228, -0.0174,  0.0369, -0.1121,  0.0784, -0.5857
1491431868.1983940601,1491431868.2006909847, -0.1228, -0.0174,  0.0369, -0.1121,  0.0784, -0.5857
1491431868.2010619640,1491431868.2033619881, -0.1514, -0.0205,  0.0346, -0.1121,  0.0711, -0.5964
1491431868.2037320137,1491431868.2060699463, -0.1514, -0.0205,  0.0346, -0.1149,  0.0711, -0.5964
1491431868.2064399719,1491431868.2087309361, -0.1514, -0.0205,  0.0346, -0.1149,  0.0711, -0.5964
1491431868.2091009617,1491431868.2113978863, -0.1514, -0.0205,  0.0346, -0.1149,  0.0711, -0.5964
1491431868.2117660046,1491431868.2141129971, -0.1514, -0.0205,  0.0346, -0.1081,  0.0583, -0.5986
1491431868.2144820690,1491431868.2167840004, -0.1514, -0.0205,  0.0346, -0.1081,  0.0583, -0.5986
1491431868.2171530724,1491431868.2194519043, -0.1514, -0.0205,  0.0346, -0.1081,  0.0583, -0.5986
1491431868.2198200226,1491431868.2221229076, -0.1514, -0.0205,  0.0422, -0.1081,  0.0583, -0.5986
1491431868.2224938869,1491431868.2247979641, -0.1878, -0.0180,  0.0422, -0.1160,  0.0411, -0.6019
1491431868.2251679897,1491431868.2274649143, -0.1878, -0.0180,  0.0422, -0.1160,  0.0411, -0.6019
1491431868.2278339863,1491431868.2301259041, -0.1878, -0.0180,  0.0422, -0.1160,  0.0411, -0.6019
1491431868.2304968834,1491431868.2327950001, -0.1878, -0.0180,  0.0422, -0.1160,  0.0411, -0.6019
1491431868.2331631184,1491431868.2355990410, -0.1878, -0.0180,  0.0422, -0.1168,  0.0239, -0.6109
1491431868.2359759808,1491431868.2383999825, -0.1878, -0.0180,  0.0422, -0.1168,  0.0239, -0.6109
1491431868.2387769222,1491431868.2412030697, -0.1878, -0.0180,  0.0422, -0.1168,  0.0239, -0.6109
1491431868.2415800095,1491431868.2440049648, -0.2136, -0.0171,  0.0490, -0.1168,  0.0239, -0.6246
1491431868.2444360256,1491431868.2468628883, -0.2136, -0.0171,  0.0490, -0.1160,  0.0096, -0.6246
1491431868.2473590374,1491431868.2497930527, -0.2136, -0.0171,  0.0490, -0.1160,  0.0096, -0.6246
1491431868.2501709461,1491431868.2525980473, -0.2136, -0.0171,  0.0490, -0.1160,  0.0096, -0.6246
1491431868.2529749870,1491431868.2554190159, -0.2136, -0.0171,  0.0490, -0.1147, -0.0052, -0.6389
1491431868.2557990551,1491431868.2582321167, -0.2136, -0.0171,  0.0490, -0.1147, -0.0052, -0.6389
1491431868.2586100101,1491431868.2610349655, -0.2136, -0.0171,  0.0490, -0.1147, -0.0052, -0.6389
1491431868.2614119053,1491431868.2638349533, -0.2530, -0.0103,  0.0622, -0.1147, -0.0052, -0.6389
1491431868.2642209530,1491431868.2665240765, -0.2530, -0.0103,  0.0622, -0.1087, -0.0232, -0.6496
1491431868.2668960094,1491431868.2691950798, -0.2530, -0.0103,  0.0622, -0.1087, -0.0232, -0.6496
1491431868.2695660591,1491431868.2718648911, -0.2530, -0.0103,  0.0622, -0.1087, -0.0232, -0.6496
1491431868.2722361088,1491431868.2745809555, -0.2530, -0.0103,  0.0622, -0.1087, -0.0232, -0.6496
1491431868.2749600410,1491431868.2773840427, -0.2530, -0.0103,  0.0622, -0.0958, -0.0430, -0.6490
1491431868.2777600288,1491431868.2801849842, -0.2530, -0.0103,  0.0622, -0.0958, -0.0430, -0.6490
1491431868.2805640697,1491431868.2829880714, -0.3289,  0.0099,  0.0444, -0.0958, -0.0430, -0.6490
1491431868.2833650112,1491431868.2858018875, -0.3289,  0.0099,  0.0444, -0.0817, -0.0647, -0.6370
1491431868.2861781120,1491431868.2886030674, -0.3289,  0.0099,  0.0444, -0.0817, -0.0647, -0.6370
1491431868.2889831066,1491431868.2914059162, -0.3289,  0.0099,  0.0444, -0.0817, -0.0647, -0.6370
1491431868.2917840481,1491431868.2942190170, -0.3289,  0.0099,  0.0444, -0.0817, -0.0647, -0.6370
1491431868.2945950031,1491431868.2970199585, -0.3289,  0.0099,  0.0444, -0.0635, -0.0828, -0.6235
1491431868.2973968983,1491431868.2998199463, -0.3289,  0.0099,  0.0444, -0.0635, -0.0828, -0.6235
1491431868.3001968861,1491431868.3026158810, -0.3946,  0.0545,  0.0529, -0.0635, -0.0828, -0.6235
1491431868.3029921055,1491431868.3054280281, -0.3946,  0.0545,  0.0529, -0.0635, -0.0828, -0.6235
1491431868.3058049679,1491431868.3082330227, -0.3946,  0.0545,  0.0529, -0.0500, -0.0902, -0.6198
1491431868.3086121082,1491431868.3110330105, -0.3946,  0.0545,  0.0529, -0.0500, -0.0902, -0.6198
1491431868.3114099503,1491431868.3138349056, -0.3946,  0.0545,  0.0529, -0.0500, -0.0902, -0.6198
1491431868.3142180443,1491431868.3165218830, -0.3946,  0.0545,  0.0529, -0.0422, -0.0820, -0.6266
1491431868.3168931007,1491431868.3191950321, -0.3946,  0.0545,  0.0529, -0.0449, -0.0820, -0.6266
1491431868.3195660114,1491431868.3218679428, -0.4227,  0.0743,  0.0584, -0.0449, -0.0820, -0.6266
1491431868.3222370148,1491431868.3245720863, -0.4227,  0.0743,  0.0584, -0.0449, -0.0820, -0.6266
1491431868.3249480724,1491431868.3273730278, -0.4227,  0.0743,  0.0584, -0.0493, -0.0616, -0.6320
1491431868.3277480602,1491431868.3301770687, -0.4227,  0.0743,  0.0584, -0.0493, -0.0616, -0.6320
1491431868.3305530548,1491431868.3329789639, -0.4227,  0.0743,  0.0584, -0.0493, -0.0616, -0.6320
1491431868.3333570957,1491431868.3357920647, -0.4227,  0.0743,  0.0584, -0.0493, -0.0616, -0.6320
1491431868.3361680508,1491431868.3385939598, -0.4227,  0.0743,  0.0584, -0.0595, -0.0438, -0.6249
1491431868.3389699459,1491431868.3413960934, -0.3836,  0.0920,  0.0189, -0.0595, -0.0438, -0.6249
1491431868.3417720795,1491431868.3442039490, -0.3860,  0.0920,  0.0189, -0.0595, -0.0438, -0.6249
1491431868.3445789814,1491431868.3475229740, -0.3860,  0.0920,  0.0189, -0.0595, -0.0359, -0.5998
1491431868.3478980064,1491431868.3501920700, -0.3860,  0.0920,  0.0189, -0.0659, -0.0349, -0.5998
1491431868.3505589962,1491431868.3528499603, -0.3860,  0.0920,  0.0189, -0.0659, -0.0349, -0.5998
1491431868.3532190323,1491431868.3556900024, -0.3860,  0.0920,  0.0189, -0.0659, -0.0349, -0.5998
1491431868.3560619354,1491431868.3583629131, -0.3860,  0.0920,  0.0189, -0.0619, -0.0356, -0.5617
1491431868.3587319851,1491431868.3610289097, -0.3860,  0.1770,  0.0197, -0.0619, -0.0356, -0.5617
1491431868.3613998890,1491431868.3636949062, -0.3595,  0.1770,  0.0197, -0.0619, -0.0356, -0.5617
1491431868.3642621040,1491431868.3665759563, -0.3595,  0.1770,  0.0197, -0.0619, -0.0356, -0.5617
1491431868.3669469357,1491431868.3692440987, -0.3595,  0.1770,  0.0197, -0.0508, -0.0325, -0.5161
1491431868.3696129322,1491431868.3719069958, -0.3595,  0.1770,  0.0197, -0.0508, -0.0325, -0.5161
1491431868.3722739220,1491431868.3745799065, -0.3595,  0.1770,  0.0197, -0.0508, -0.0325, -0.5161
1491431868.3749489784,1491431868.3772470951, -0.3595,  0.1770,  0.0197, -0.0508, -0.0325, -0.5161
1491431868.3776159286,1491431868.3799159527, -0.3595,  0.1770,  0.0197, -0.0366, -0.0270, -0.4623
1491431868.3802840710,1491431868.3825790882, -0.3028,  0.2613,  0.0318, -0.0366, -0.0270, -0.4623
1491431868.3829479218,1491431868.3852899075, -0.3028,  0.2613,  0.0318, -0.0366, -0.0270, -0.4623
1491431868.3856589794,1491431868.3879580498, -0.3028,  0.2613,  0.0318, -0.0366, -0.0270, -0.3911
1491431868.3883259296,1491431868.3906199932, -0.3028,  0.2613,  0.0318, -0.0150, -0.0220, -0.3911
1491431868.3909890652,1491431868.3932859898, -0.3028,  0.2613,  0.0318, -0.0150, -0.0220, -0.3911
1491431868.3936550617,1491431868.3960649967, -0.3028,  0.2613,  0.0318, -0.0150, -0.0220, -0.3911
1491431868.3964409828,1491431868.3988649845, -0.3028,  0.2613,  0.0318,  0.0085, -0.0237, -0.2945
1491431868.3992419243,1491431868.4016699791, -0.2502,  0.3710,  0.0066,  0.0141, -0.0237, -0.2945
1491431868.4020459652,1491431868.4045100212, -0.2502,  0.3710,  0.0066,  0.0141, -0.0237, -0.2945
1491431868.4048869610,1491431868.4073100090, -0.2502,  0.3710,  0.0066,  0.0141, -0.0237, -0.2945
1491431868.4076869488,1491431868.4101169109, -0.2502,  0.3710,  0.0066,  0.0287, -0.0274, -0.1712
1491431868.4104940891,1491431868.4129250050, -0.2502,  0.3710,  0.0066,  0.0287, -0.0274, -0.1712
1491431868.4133040905,1491431868.4156630039, -0.2502,  0.3710,  0.0066,  0.0287, -0.0274, -0.1712
1491431868.4160349369,1491431868.4183340073, -0.2502,  0.3710,  0.0066,  0.0287, -0.0274, -0.1712
1491431868.4187018871,1491431868.4210081100, -0.2279,  0.3972, -0.0523,  0.0298, -0.0310, -0.0444
1491431868.4213759899,1491431868.4236800671, -0.2279,  0.3972, -0.0523,  0.0298, -0.0310, -0.0444
1491431868.4240469933,1491431868.4265201092, -0.2279,  0.3972, -0.0523,  0.0298, -0.0310, -0.0444
1491431868.4268970490,1491431868.4293210506, -0.2279,  0.3972, -0.0523,  0.0298, -0.0310,  0.0615
1491431868.4296970367,1491431868.4321229458, -0.2279,  0.3972, -0.0523,  0.0251, -0.0276,  0.0615
1491431868.4324979782,1491431868.4349379539, -0.2279,  0.3972, -0.0523,  0.0251, -0.0276,  0.0615
1491431868.4353120327,1491431868.4377388954, -0.2279,  0.3972, -0.0523,  0.0251, -0.0276,  0.0615
1491431868.4381179810,1491431868.4405379295, -0.3919,  0.1522, -0.0930,  0.0000,  0.0010,  0.1354
1491431868.4409139156,1491431868.4433360100, -0.3933,  0.1522, -0.0930,  0.0000,  0.0010,  0.1354
1491431868.4437129498,1491431868.4461500645, -0.3933,  0.1522, -0.0930,  0.0000,  0.0010,  0.1354
1491431868.4465301037,1491431868.4489569664, -0.3933,  0.1522, -0.0930,  0.0000,  0.0010,  0.1354
1491431868.4493329525,1491431868.4517600536, -0.3933,  0.1522, -0.0930,  0.0253,  0.0121,  0.2562
1491431868.4521360397,1491431868.4545769691, -0.3933,  0.1522, -0.0930,  0.0253,  0.0121,  0.2562
1491431868.4549469948,1491431868.4572451115, -0.3933,  0.1522, -0.0930,  0.0253,  0.0121,  0.2562
1491431868.4576148987,1491431868.4599161148, -0.3933,  0.0620,  0.0877,  0.0253,  0.0121,  0.3582
1491431868.4602830410,1491431868.4625840187, -0.0181,  0.0620,  0.0877,  0.1615,  0.0775,  0.3582
1491431868.4629518986,1491431868.4653830528, -0.0181,  0.0620,  0.0877,  0.1615,  0.0775,  0.3582
1491431868.4657568932,1491431868.4702849388, -0.0181,  0.0620,  0.0877,  0.1615,  0.0775,  0.3582
1491431868.4706699848,1491431868.4730129242, -0.0181,  0.0620,  0.0877,  0.2172,  0.2582,  0.2154
1491431868.4733819962,1491431868.4757130146, -0.0181,  0.0620,  0.0877,  0.2172,  0.2582,  0.2154
1491431868.4760820866,1491431868.4783790112, -0.0181,  0.0620,  0.0877,  0.2172,  0.2582,  0.2154
1491431868.4788780212,1491431868.4811730385, -0.3626, -0.6175,  0.3543, -0.0563, -0.0714,  0.4117
1491431868.4815421104,1491431868.4838409424, -0.3626, -0.6175,  0.3543, -0.0567, -0.0714,  0.4117
1491431868.4842090607,1491431868.4865069389, -0.3626, -0.6175,  0.3543, -0.0567, -0.0714,  0.4117
1491431868.4868769646,1491431868.4891700745, -0.3626, -0.6175,  0.3543, -0.0567, -0.0714,  0.4117
1491431868.4895389080,1491431868.4918389320, -0.3626, -0.6175,  0.3543, -0.0800, -0.1313,  0.7254
1491431868.4922070503,1491431868.4945480824, -0.3626, -0.6175,  0.3543, -0.0800, -0.1313,  0.7254
1491431868.4949159622,1491431868.4972150326, -0.3626, -0.6175,  0.3543, -0.0800, -0.1313,  0.7254
1491431868.4975850582,1491431868.4998769760, -0.2766,  0.4267, -0.2035, -0.0800, -0.1313,  0.7254
1491431868.5002450943,1491431868.5025420189, -0.2749,  0.4267, -0.2035, -0.1499, -0.1063,  0.6321
1491431868.5029098988,1491431868.5052959919, -0.2749,  0.4267, -0.2035, -0.1499, -0.1063,  0.6321
1491431868.5056650639,1491431868.5079679489, -0.2749,  0.4267, -0.2035, -0.1499, -0.1063,  0.6321
1491431868.5083351135,1491431868.5106389523, -0.2749,  0.4267, -0.2035, -0.1499, -0.1063,  0.6321
1491431868.5110080242,1491431868.5133130550, -0.2749,  0.4267, -0.2035,  0.0340, -0.0716,  0.4369
1491431868.5136830807,1491431868.5161321163, -0.2749,  0.4267, -0.2035,  0.0340, -0.0716,  0.4369
1491431868.5165081024,1491431868.5189309120, -0.2749,  0.4267,  0.0855,  0.0340, -0.0716,  0.4369
1491431868.5193059444,1491431868.5217370987, -0.2774,  0.0389,  0.0843,  0.0340, -0.0716,  0.3584
1491431868.5221140385,1491431868.5245521069, -0.2774,  0.0389,  0.0843,  0.0521, -0.0413,  0.3584
1491431868.5249269009,1491431868.5273520947, -0.2774,  0.0389,  0.0843,  0.0521, -0.0413,  0.3584
1491431868.5277290344,1491431868.5301558971, -0.2774,  0.0389,  0.0843,  0.0521, -0.0413,  0.3584
1491431868.5305318832,1491431868.5329539776, -0.2774,  0.0389,  0.0843,  0.0428, -0.0184,  0.3014
1491431868.5333299637,1491431868.5357649326, -0.2774,  0.0389,  0.0843,  0.0428, -0.0184,  0.3014
1491431868.5361399651,1491431868.5385708809, -0.2774,  0.0389,  0.0218,  0.0428, -0.0184,  0.3014
1491431868.5389459133,1491431868.5413720608, -0.1368,  0.0014,  0.0185,  0.0428, -0.0184,  0.3014
1491431868.5417490005,1491431868.5441839695, -0.1368,  0.0014,  0.0185,  0.0051, -0.0238,  0.2823
1491431868.5445621014,1491431868.5469830036, -0.1368,  0.0014,  0.0185,  0.0051, -0.0238,  0.2823
1491431868.5473620892,1491431868.5497848988, -0.1368,  0.0014,  0.0185,  0.0051, -0.0238,  0.2823
1491431868.5501639843,1491431868.5525870323, -0.1368,  0.0014,  0.0185,  0.0051, -0.0238,  0.2679
1491431868.5529649258,1491431868.5553410053, -0.1368,  0.0014,  0.0185, -0.0414, -0.0650,  0.2679
1491431868.5557100773,1491431868.5580151081, -0.1368,  0.0014,  0.0185, -0.0414, -0.0650,  0.2679
1491431868.5583870411,1491431868.5606880188, -0.2816,  0.1512,  0.1092, -0.0414, -0.0650,  0.2679
1491431868.5610570908,1491431868.5633599758, -0.2816,  0.1512,  0.1092, -0.0336, -0.0208,  0.1918
1491431868.5637290478,1491431868.5660541058, -0.2816,  0.1512,  0.1092, -0.0374, -0.0208,  0.1918
1491431868.5664229393,1491431868.5687210560, -0.2816,  0.1512,  0.1092, -0.0374, -0.0208,  0.1918
1491431868.5690898895,1491431868.5713961124, -0.2816,  0.1512,  0.1092, -0.0374, -0.0208,  0.1918
1491431868.5717658997,1491431868.5741300583, -0.2816,  0.1512,  0.1092,  0.0023,  0.0748,  0.0911
1491431868.5745120049,1491431868.5769410133, -0.2816,  0.1512,  0.1092,  0.0023,  0.0748,  0.0911
1491431868.5773160458,1491431868.5797429085, -0.1771, -0.0086, -0.0631,  0.0023,  0.0748,  0.0911
1491431868.5801210403,1491431868.5825428963, -0.1771, -0.0086, -0.0631,  0.0023,  0.0748,  0.0911
1491431868.5829188824,1491431868.5853528976, -0.1771, -0.0086, -0.0631,  0.0268,  0.0765,  0.0663
1491431868.5857279301,1491431868.5881490707, -0.1771, -0.0086, -0.0631,  0.0268,  0.0765,  0.0663
1491431868.5885260105,1491431868.5909519196, -0.1771, -0.0086, -0.0631,  0.0268,  0.0765,  0.0663
1491431868.5913290977,1491431868.5937519073, -0.1771, -0.0086, -0.0631,  0.0268,  0.0765,  0.0774
1491431868.5942459106,1491431868.5966761112, -0.1771, -0.0086, -0.0631,  0.0158,  0.0295,  0.0774
1491431868.5970520973,1491431868.5994799137, -0.1932,  0.0167,  0.0013,  0.0158,  0.0295,  0.0774
1491431868.5998558998,1491431868.6022799015, -0.1932,  0.0167,  0.0013,  0.0158,  0.0295,  0.0774
1491431868.6026589870,1491431868.6051089764, -0.1932,  0.0167,  0.0013,  0.0191,  0.0170,  0.0520
1491431868.6054790020,1491431868.6077799797, -0.1932,  0.0167,  0.0013,  0.0191,  0.0170,  0.0520
1491431868.6081480980,1491431868.6104540825, -0.1932,  0.0167,  0.0013,  0.0191,  0.0170,  0.0520
1491431868.6108229160,1491431868.6131269932, -0.1932,  0.0167,  0.0013,  0.0191,  0.0170,  0.0520
1491431868.6134960651,1491431868.6159410477, -0.1932,  0.0167,  0.0013,  0.0277,  0.0200,  0.0329
1491431868.6163198948,1491431868.6187479496, -0.1932, -0.0067,  0.0028,  0.0277,  0.0200,  0.0329
1491431868.6191229820,1491431868.6215519905, -0.1841, -0.0067,  0.0028,  0.0277,  0.0200,  0.0329
1491431868.6219270229,1491431868.6243529320, -0.1841, -0.0067,  0.0028,  0.0277,  0.0200,  0.0251
1491431868.6247320175,1491431868.6271479130, -0.1841, -0.0067,  0.0028,  0.0402,  0.0072,  0.0266
1491431868.6275250912,1491431868.6299469471, -0.1841, -0.0067,  0.0028,  0.0402,  0.0072,  0.0266
1491431868.6303238869,1491431868.6327428818, -0.1841, -0.0067,  0.0028,  0.0402,  0.0072,  0.0266
1491431868.6331200600,1491431868.6355528831, -0.1841, -0.0067,  0.0028,  0.0402, -0.0008,  0.0180
1491431868.6359310150,1491431868.6383559704, -0.1841, -0.0089,  0.0022,  0.0417, -0.0008,  0.0180
1491431868.6387319565,1491431868.6411600113, -0.1848, -0.0089,  0.0022,  0.0417, -0.0008,  0.0180
1491431868.6415369511,1491431868.6439549923, -0.1848, -0.0089,  0.0022,  0.0417, -0.0008,  0.0180
1491431868.6443328857,1491431868.6467599869, -0.1848, -0.0089,  0.0022,  0.0422, -0.0103,  0.0100
1491431868.6471381187,1491431868.6495699883, -0.1848, -0.0089,  0.0022,  0.0422, -0.0103,  0.0100
1491431868.6499450207,1491431868.6523730755, -0.1848, -0.0089,  0.0022,  0.0422, -0.0103,  0.0100
1491431868.6527509689,1491431868.6551389694, -0.1848, -0.0089,  0.0022,  0.0422, -0.0103,  0.0022
1491431868.6555109024,1491431868.6578071117, -0.1848, -0.0089, -0.0046,  0.0409, -0.0191,  0.0053
1491431868.6581780910,1491431868.6604828835, -0.1851, -0.0071, -0.0046,  0.0409, -0.0191,  0.0053
1491431868.6608529091,1491431868.6631529331, -0.1851, -0.0071, -0.0046,  0.0409, -0.0191,  0.0053
1491431868.6635251045,1491431868.6659688950, -0.1851, -0.0071, -0.0046,  0.0409, -0.0269,  0.0016
1491431868.6663479805,1491431868.6687710285, -0.1851, -0.0071, -0.0046,  0.0352, -0.0271,  0.0016
1491431868.6691489220,1491431868.6715760231, -0.1851, -0.0071, -0.0046,  0.0352, -0.0271,  0.0016
1491431868.6719529629,1491431868.6743910313, -0.1851, -0.0071, -0.0046,  0.0352, -0.0271,  0.0016
1491431868.6747701168,1491431868.6771969795, -0.1851, -0.0071, -0.0046,  0.0306, -0.0314,  0.0005
1491431868.6775739193,1491431868.6799991131, -0.1889, -0.0195,  0.0163,  0.0306, -0.0314,  0.0005
1491431868.6803750992,1491431868.6828019619, -0.1889, -0.0195,  0.0163,  0.0306, -0.0314,  0.0005
1491431868.6831789017,1491431868.6856179237, -0.1889, -0.0195,  0.0163,  0.0306, -0.0314,  0.0005
1491431868.6859920025,1491431868.6884179115, -0.1889, -0.0195,  0.0163,  0.0263, -0.0343,  0.0027
1491431868.6887950897,1491431868.6912250519, -0.1889, -0.0195,  0.0163,  0.0263, -0.0343,  0.0027
1491431868.6916010380,1491431868.6940300465, -0.1889, -0.0195,  0.0163,  0.0263, -0.0343,  0.0027
1491431868.6944570541,1491431868.6968851089, -0.1889, -0.0195,  0.0163,  0.0263, -0.0265,  0.0045
1491431868.6972599030,1491431868.6996839046, -0.1909, -0.0142,  0.0317,  0.0193, -0.0312,  0.0045
1491431868.7000610828,1491431868.7024829388, -0.1909, -0.0142,  0.0317,  0.0193, -0.0312,  0.0045
1491431868.7028589249,1491431868.7052659988, -0.1909, -0.0142,  0.0317,  0.0193, -0.0312,  0.0045
1491431868.7056341171,1491431868.7079360485, -0.1909, -0.0142,  0.0317,  0.0150, -0.0254,  0.0062
1491431868.7083048820,1491431868.7106080055, -0.1909, -0.0142,  0.0317,  0.0150, -0.0254,  0.0062
1491431868.7110888958,1491431868.7133929729, -0.1909, -0.0142,  0.0317,  0.0150, -0.0254,  0.0062
1491431868.7137639523,1491431868.7161870003, -0.1909, -0.0142,  0.0317,  0.0150, -0.0254,  0.0062
1491431868.7165639400,1491431868.7189860344, -0.1881, -0.0121,  0.0269,  0.0126, -0.0221,  0.0078
1491431868.7193620205,1491431868.7217919827, -0.1881, -0.0121,  0.0269,  0.0126, -0.0221,  0.0078
1491431868.7221710682,1491431868.7246088982, -0.1881, -0.0121,  0.0269,  0.0126, -0.0221,  0.0078
1491431868.7249870300,1491431868.7274110317, -0.1881, -0.0121,  0.0269,  0.0126, -0.0221,  0.0072
1491431868.7277870178,1491431868.7302091122, -0.1881, -0.0121,  0.0269,  0.0106, -0.0197,  0.0072
1491431868.7305860519,1491431868.7330129147, -0.1881, -0.0121,  0.0269,  0.0106, -0.0197,  0.0072
1491431868.7333889008,1491431868.7358260155, -0.1881, -0.0121,  0.0269,  0.0106, -0.0197,  0.0072
1491431868.7362020016,1491431868.7386219501, -0.1907, -0.0089,  0.0360,  0.0085, -0.0173,  0.0050
1491431868.7389988899,1491431868.7414228916, -0.1907, -0.0089,  0.0360,  0.0085, -0.0173,  0.0050
1491431868.7418019772,1491431868.7442378998, -0.1907, -0.0089,  0.0360,  0.0085, -0.0173,  0.0050
1491431868.7446160316,1491431868.7470409870, -0.1907, -0.0089,  0.0360,  0.0085, -0.0173,  0.0050
1491431868.7474169731,1491431868.7498440742, -0.1907, -0.0089,  0.0360,  0.0081, -0.0113,  0.0023
1491431868.7502229214,1491431868.7526519299, -0.1907, -0.0089,  0.0360,  0.0081, -0.0113,  0.0023
1491431868.7530279160,1491431868.7554039955, -0.1907, -0.0089,  0.0360,  0.0081, -0.0113,  0.0023
1491431868.7557740211,1491431868.7580800056, -0.1882, -0.0115,  0.0253,  0.0081, -0.0113,  0.0023
1491431868.7584478855,1491431868.7607550621, -0.1882, -0.0115,  0.0253,  0.0059, -0.0075,  0.0005
1491431868.7611260414,1491431868.7634270191, -0.1882, -0.0115,  0.0253,  0.0059, -0.0075,  0.0005
1491431868.7637979984,1491431868.7661020756, -0.1882, -0.0115,  0.0253,  0.0059, -0.0075,  0.0005
1491431868.7664730549,1491431868.7687740326, -0.1882, -0.0115,  0.0253,  0.0059, -0.0075,  0.0010
1491431868.7691450119,1491431868.7714390755, -0.1882, -0.0115,  0.0253,  0.0055, -0.0054,  0.0010
1491431868.7718091011,1491431868.7741510868, -0.1882, -0.0115,  0.0253,  0.0055, -0.0054,  0.0010
1491431868.7745289803,1491431868.7769529819, -0.1882, -0.0110,  0.0203,  0.0055, -0.0054,  0.0010
1491431868.7773330212,1491431868.7797551155, -0.1880, -0.0110,  0.0203,  0.0100, -0.0017,  0.0023
1491431868.7801311016,1491431868.7825500965, -0.1880, -0.0110,  0.0203,  0.0100, -0.0017,  0.0023
1491431868.7829260826,1491431868.7853620052, -0.1880, -0.0110,  0.0203,  0.0100, -0.0017,  0.0023
1491431868.7857398987,1491431868.7881650925, -0.1880, -0.0110,  0.0203,  0.0100, -0.0017,  0.0023
1491431868.7885429859,1491431868.7909688950, -0.1880, -0.0110,  0.0203,  0.0089, -0.0005,  0.0046
1491431868.7913448811,1491431868.7937729359, -0.1880, -0.0110,  0.0203,  0.0089, -0.0005,  0.0046
1491431868.7941598892,1491431868.7965869904, -0.1880, -0.0110,  0.0297,  0.0089, -0.0005,  0.0046
1491431868.7969648838,1491431868.7993879318, -0.1889, -0.0087,  0.0297,  0.0089, -0.0005,  0.0046
1491431868.7997639179,1491431868.8021919727, -0.1889, -0.0087,  0.0297,  0.0103,  0.0026,  0.0066
1491431868.8025701046,1491431868.8050129414, -0.1889, -0.0087,  0.0297,  0.0103,  0.0026,  0.0066
1491431868.8053898811,1491431868.8078150749, -0.1889, -0.0087,  0.0297,  0.0103,  0.0026,  0.0066
1491431868.8081910610,1491431868.8106191158, -0.1889, -0.0087,  0.0297,  0.0132,  0.0063,  0.0077
1491431868.8109970093,1491431868.8134219646, -0.1889, -0.0087,  0.0297,  0.0132,  0.0063,  0.0077
1491431868.8138010502,1491431868.8161320686, -0.1889, -0.0087,  0.0277,  0.0132,  0.0063,  0.0077
1491431868.8165020943,1491431868.8188009262, -0.1878, -0.0090,  0.0277,  0.0132,  0.0063,  0.0077
1491431868.8191719055,1491431868.8214690685, -0.1878, -0.0090,  0.0277,  0.0147,  0.0102,  0.0094
1491431868.8218390942,1491431868.8241689205, -0.1878, -0.0090,  0.0277,  0.0147,  0.0102,  0.0094
1491431868.8245470524,1491431868.8269689083, -0.1878, -0.0090,  0.0277,  0.0147,  0.0102,  0.0094
1491431868.8274509907,1491431868.8298759460, -0.1878, -0.0090,  0.0277,  0.0147,  0.0102,  0.0094
1491431868.8302550316,1491431868.8326809406, -0.1878, -0.0090,  0.0277,  0.0148,  0.0131,  0.0113
1491431868.8330569267,1491431868.8355360031, -0.1878, -0.0090,  0.0277,  0.0148,  0.0131,  0.0113
1491431868.8359119892,1491431868.8383359909, -0.1889, -0.0091,  0.0272,  0.0148,  0.0131,  0.0113
1491431868.8387119770,1491431868.8411409855, -0.1889, -0.0091,  0.0272,  0.0148,  0.0157,  0.0122
1491431868.8415191174,1491431868.8439431190, -0.1889, -0.0091,  0.0272,  0.0149,  0.0157,  0.0122
1491431868.8443291187,1491431868.8467540741, -0.1889, -0.0091,  0.0272,  0.0149,  0.0157,  0.0122
1491431868.8471300602,1491431868.8495540619, -0.1889, -0.0091,  0.0272,  0.0149,  0.0157,  0.0122
1491431868.8499310017,1491431868.8523609638, -0.1889, -0.0091,  0.0272,  0.0139,  0.0175,  0.0142
1491431868.8527390957,1491431868.8551781178, -0.1889, -0.0091,  0.0272,  0.0139,  0.0175,  0.0142
1491431868.8555560112,1491431868.8579881191, -0.1896, -0.0075,  0.0228,  0.0139,  0.0175,  0.0142
