timestamp_before,timestamp_after,accel_x,accel_y,accel_z,gyro_x,gyro_y,gryo_z
1493101420.8918099403, 1493101420.9035520554,  -0.0219,  -0.0712,   0.1006,   0.0055,   0.0040,  -0.0171
1493101420.9041519165, 1493101420.9064519405,  -0.0219,  -0.0712,   0.1006,   0.0055,   0.0040,  -0.0171
1493101420.9070498943, 1493101420.9093449116,  -0.0219,  -0.0712,   0.1006,   0.0055,   0.0040,  -0.0171
1493101420.9099431038, 1493101420.9122960567,  -0.0219,  -0.0712,   0.1006,   0.0048,   0.0038,  -0.0158
1493101420.9128930569, 1493101420.9151918888,  -0.0219,  -0.0712,   0.1006,   0.0048,   0.0038,  -0.0158
1493101420.9157910347, 1493101420.9180870056,  -0.0219,  -0.0712,   0.1006,   0.0048,   0.0038,  -0.0158
1493101420.9186849594, 1493101420.9209969044,  -0.0219,  -0.0712,   0.1006,   0.0048,   0.0038,  -0.0080
1493101420.9215960503, 1493101420.9238910675,  -0.0219,  -0.0713,   0.0999,   0.0045,   0.0045,  -0.0151
1493101420.9244880676, 1493101420.9267818928,  -0.0219,  -0.0713,   0.0999,   0.0045,   0.0045,  -0.0151
1493101420.9273810387, 1493101420.9296810627,  -0.0219,  -0.0713,   0.0999,   0.0045,   0.0045,  -0.0151
1493101420.9302780628, 1493101420.9325859547,  -0.0219,  -0.0713,   0.0999,   0.0056,   0.0043,  -0.0151
1493101420.9331839085, 1493101420.9355919361,  -0.0219,  -0.0713,   0.0999,   0.0056,   0.0043,  -0.0151
1493101420.9361898899, 1493101420.9384860992,  -0.0219,  -0.0713,   0.0999,   0.0056,   0.0043,  -0.0151
1493101420.9390859604, 1493101420.9414939880,  -0.0219,  -0.0713,   0.0999,   0.0056,   0.0043,  -0.0151
1493101420.9420940876, 1493101420.9443900585,  -0.0222,  -0.0715,   0.0990,   0.0062,   0.0034,  -0.0155
1493101420.9449889660, 1493101420.9477419853,  -0.0222,  -0.0715,   0.0990,   0.0062,   0.0034,  -0.0155
1493101420.9483420849, 1493101420.9506349564,  -0.0222,  -0.0715,   0.0990,   0.0062,   0.0034,  -0.0155
1493101420.9512319565, 1493101420.9535241127,  -0.0222,  -0.0715,   0.0990,   0.0069,   0.0034,  -0.0166
1493101420.9541230202, 1493101420.9564130306,  -0.0222,  -0.0715,   0.0990,   0.0069,   0.0034,  -0.0166
1493101420.9570119381, 1493101420.9593019485,  -0.0222,  -0.0715,   0.0990,   0.0069,   0.0034,  -0.0166
1493101420.9598999023, 1493101420.9621980190,  -0.0222,  -0.0715,   0.0999,   0.0069,   0.0034,  -0.0166
1493101420.9627959728, 1493101420.9650878906,  -0.0219,  -0.0710,   0.0999,   0.0075,   0.0029,  -0.0173
1493101420.9656848907, 1493101420.9679749012,  -0.0219,  -0.0710,   0.0999,   0.0075,   0.0029,  -0.0173
1493101420.9685719013, 1493101420.9708600044,  -0.0219,  -0.0710,   0.0999,   0.0075,   0.0029,  -0.0173
1493101420.9714601040, 1493101420.9737589359,  -0.0219,  -0.0710,   0.0999,   0.0081,   0.0028,  -0.0171
1493101420.9743559361, 1493101420.9766519070,  -0.0219,  -0.0710,   0.0999,   0.0081,   0.0028,  -0.0171
1493101420.9772510529, 1493101420.9795451164,  -0.0219,  -0.0710,   0.0999,   0.0081,   0.0028,  -0.0171
1493101420.9801440239, 1493101420.9825019836,  -0.0219,  -0.0714,   0.0991,   0.0081,   0.0028,  -0.0171
1493101420.9830980301, 1493101420.9853971004,  -0.0220,  -0.0714,   0.0991,   0.0083,   0.0035,  -0.0172
1493101420.9859960079, 1493101420.9882919788,  -0.0220,  -0.0714,   0.0991,   0.0083,   0.0035,  -0.0172
1493101420.9888889790, 1493101420.9913229942,  -0.0220,  -0.0714,   0.0991,   0.0083,   0.0035,  -0.0172
1493101420.9919219017, 1493101420.9942150116,  -0.0220,  -0.0714,   0.0991,   0.0071,   0.0034,  -0.0176
1493101420.9948129654, 1493101420.9971098900,  -0.0220,  -0.0714,   0.0991,   0.0071,   0.0034,  -0.0176
1493101420.9977059364, 1493101420.9999940395,  -0.0220,  -0.0714,   0.0991,   0.0071,   0.0034,  -0.0176
1493101421.0005929470, 1493101421.0029909611,  -0.0220,  -0.0715,   0.1006,   0.0071,   0.0034,  -0.0176
1493101421.0035870075, 1493101421.0058801174,  -0.0220,  -0.0715,   0.1006,   0.0057,   0.0034,  -0.0179
1493101421.0064771175, 1493101421.0087659359,  -0.0220,  -0.0715,   0.1006,   0.0057,   0.0034,  -0.0179
1493101421.0093650818, 1493101421.0117061138,  -0.0220,  -0.0715,   0.1006,   0.0057,   0.0034,  -0.0179
1493101421.0123031139, 1493101421.0145900249,  -0.0220,  -0.0715,   0.1006,   0.0054,   0.0040,  -0.0173
1493101421.0151879787, 1493101421.0174849033,  -0.0220,  -0.0715,   0.1006,   0.0054,   0.0040,  -0.0173
1493101421.0180819035, 1493101421.0203781128,  -0.0220,  -0.0715,   0.1006,   0.0054,   0.0040,  -0.0173
1493101421.0209689140, 1493101421.0233941078,  -0.0219,  -0.0712,   0.0995,   0.0054,   0.0040,  -0.0173
1493101421.0240008831, 1493101421.0264239311,  -0.0219,  -0.0712,   0.0995,   0.0053,   0.0042,  -0.0168
1493101421.0270280838, 1493101421.0294458866,  -0.0219,  -0.0712,   0.0995,   0.0053,   0.0042,  -0.0168
1493101421.0300519466, 1493101421.0324800014,  -0.0219,  -0.0712,   0.0995,   0.0053,   0.0042,  -0.0168
1493101421.0330851078, 1493101421.0355050564,  -0.0219,  -0.0712,   0.0995,   0.0050,   0.0039,  -0.0170
1493101421.0361111164, 1493101421.0385320187,  -0.0219,  -0.0712,   0.0995,   0.0050,   0.0039,  -0.0170
1493101421.0391368866, 1493101421.0415740013,  -0.0219,  -0.0712,   0.1002,   0.0050,   0.0039,  -0.0170
1493101421.0421791077, 1493101421.0446000099,  -0.0219,  -0.0713,   0.1002,   0.0050,   0.0039,  -0.0173
1493101421.0452051163, 1493101421.0476241112,  -0.0219,  -0.0713,   0.1002,   0.0060,   0.0034,  -0.0173
1493101421.0482280254, 1493101421.0506489277,  -0.0219,  -0.0713,   0.1002,   0.0060,   0.0034,  -0.0173
1493101421.0512619019, 1493101421.0536839962,  -0.0219,  -0.0713,   0.1002,   0.0060,   0.0034,  -0.0173
1493101421.0542900562, 1493101421.0567090511,  -0.0219,  -0.0713,   0.1002,   0.0070,   0.0033,  -0.0179
1493101421.0573151112, 1493101421.0597419739,  -0.0219,  -0.0713,   0.1002,   0.0070,   0.0033,  -0.0179
1493101421.0603470802, 1493101421.0627739429,  -0.0218,  -0.0713,   0.0997,   0.0070,   0.0033,  -0.0179
1493101421.0633790493, 1493101421.0657999516,  -0.0218,  -0.0713,   0.0997,   0.0149,   0.0037,  -0.0171
1493101421.0664060116, 1493101421.0688290596,  -0.0218,  -0.0713,   0.0997,   0.0085,   0.0037,  -0.0171
1493101421.0694329739, 1493101421.0718579292,  -0.0218,  -0.0713,   0.0997,   0.0085,   0.0037,  -0.0171
1493101421.0724630356, 1493101421.0748839378,  -0.0218,  -0.0713,   0.0997,   0.0085,   0.0037,  -0.0171
1493101421.0754890442, 1493101421.0779049397,  -0.0218,  -0.0713,   0.0997,   0.0075,   0.0036,  -0.0170
1493101421.0785109997, 1493101421.0809431076,  -0.0218,  -0.0713,   0.0999,   0.0075,   0.0036,  -0.0170
1493101421.0815420151, 1493101421.0838398933,  -0.0219,  -0.0713,   0.0999,   0.0075,   0.0036,  -0.0170
1493101421.0844380856, 1493101421.0867359638,  -0.0219,  -0.0713,   0.0999,   0.0064,   0.0031,  -0.0171
1493101421.0873329639, 1493101421.0896320343,  -0.0219,  -0.0713,   0.0999,   0.0064,   0.0031,  -0.0171
1493101421.0902309418, 1493101421.0925319195,  -0.0219,  -0.0713,   0.0999,   0.0064,   0.0031,  -0.0171
1493101421.0931301117, 1493101421.0954239368,  -0.0219,  -0.0713,   0.0999,   0.0064,   0.0031,  -0.0171
1493101421.0960218906, 1493101421.0983219147,  -0.0219,  -0.0713,   0.0999,   0.0051,   0.0032,  -0.0172
1493101421.0989201069, 1493101421.1013019085,  -0.0219,  -0.0712,   0.1001,   0.0051,   0.0032,  -0.0172
1493101421.1019010544, 1493101421.1041979790,  -0.0219,  -0.0712,   0.1001,   0.0051,   0.0032,  -0.0172
1493101421.1047949791, 1493101421.1070950031,  -0.0219,  -0.0712,   0.1001,   0.0050,   0.0033,  -0.0169
1493101421.1076920033, 1493101421.1100089550,  -0.0219,  -0.0712,   0.1001,   0.0050,   0.0033,  -0.0169
1493101421.1106069088, 1493101421.1131320000,  -0.0219,  -0.0712,   0.1001,   0.0050,   0.0033,  -0.0169
1493101421.1137371063, 1493101421.1161630154,  -0.0219,  -0.0712,   0.1001,   0.0050,   0.0033,  -0.0169
1493101421.1167690754, 1493101421.1191909313,  -0.0219,  -0.0712,   0.1001,   0.0063,   0.0039,  -0.0170
1493101421.1197969913, 1493101421.1222310066,  -0.0220,  -0.0712,   0.1010,   0.0063,   0.0039,  -0.0170
1493101421.1228361130, 1493101421.1252510548,  -0.0220,  -0.0712,   0.1010,   0.0063,   0.0039,  -0.0170
1493101421.1258559227, 1493101421.1282761097,  -0.0220,  -0.0712,   0.1010,   0.0056,   0.0037,  -0.0168
1493101421.1288809776, 1493101421.1313369274,  -0.0220,  -0.0712,   0.1010,   0.0056,   0.0037,  -0.0168
1493101421.1319370270, 1493101421.1342411041,  -0.0220,  -0.0712,   0.1010,   0.0056,   0.0037,  -0.0168
1493101421.1348400116, 1493101421.1371428967,  -0.0220,  -0.0712,   0.1010,   0.0056,   0.0037,  -0.0172
1493101421.1377410889, 1493101421.1400389671,  -0.0220,  -0.0712,   0.1010,   0.0051,   0.0038,  -0.0172
1493101421.1406989098, 1493101421.1432089806,  -0.0222,  -0.0712,   0.1003,   0.0051,   0.0038,  -0.0172
1493101421.1438069344, 1493101421.1461060047,  -0.0222,  -0.0712,   0.1003,   0.0051,   0.0038,  -0.0172
1493101421.1467061043, 1493101421.1490020752,  -0.0222,  -0.0712,   0.1003,   0.0065,   0.0036,  -0.0168
1493101421.1496000290, 1493101421.1520950794,  -0.0222,  -0.0712,   0.1003,   0.0065,   0.0036,  -0.0168
1493101421.1526989937, 1493101421.1550920010,  -0.0222,  -0.0712,   0.1003,   0.0065,   0.0036,  -0.0168
1493101421.1556949615, 1493101421.1581029892,  -0.0222,  -0.0712,   0.1003,   0.0065,   0.0036,  -0.0172
1493101421.1587069035, 1493101421.1616868973,  -0.0221,  -0.0716,   0.0995,   0.0072,   0.0029,  -0.0172
1493101421.1622920036, 1493101421.1647050381,  -0.0221,  -0.0716,   0.0995,   0.0072,   0.0029,  -0.0172
1493101421.1653079987, 1493101421.1677179337,  -0.0221,  -0.0716,   0.0995,   0.0072,   0.0029,  -0.0172
1493101421.1683230400, 1493101421.1707999706,  -0.0221,  -0.0716,   0.0995,   0.0075,   0.0028,  -0.0173
1493101421.1714649200, 1493101421.1737670898,  -0.0221,  -0.0716,   0.0995,   0.0075,   0.0028,  -0.0173
1493101421.1743650436, 1493101421.1766650677,  -0.0221,  -0.0716,   0.0995,   0.0075,   0.0028,  -0.0173
1493101421.1772630215, 1493101421.1795608997,  -0.0221,  -0.0716,   0.0995,   0.0074,   0.0031,  -0.0172
1493101421.1801578999, 1493101421.1826701164,  -0.0219,  -0.0714,   0.1009,   0.0074,   0.0031,  -0.0172
1493101421.1832768917, 1493101421.1856911182,  -0.0219,  -0.0714,   0.1009,   0.0074,   0.0031,  -0.0172
1493101421.1862959862, 1493101421.1887040138,  -0.0219,  -0.0714,   0.1009,   0.0074,   0.0031,  -0.0171
1493101421.1893110275, 1493101421.1918280125,  -0.0219,  -0.0714,   0.1009,   0.0070,   0.0035,  -0.0171
1493101421.1924259663, 1493101421.1947278976,  -0.0219,  -0.0714,   0.1009,   0.0070,   0.0035,  -0.0171
1493101421.1953279972, 1493101421.1976230145,  -0.0219,  -0.0714,   0.1009,   0.0070,   0.0035,  -0.0171
1493101421.1982209682, 1493101421.2005219460,  -0.0221,  -0.0710,   0.1000,   0.0049,   0.0036,  -0.0165
1493101421.2011198997, 1493101421.2035410404,  -0.0221,  -0.0710,   0.1000,   0.0049,   0.0036,  -0.0165
1493101421.2041420937, 1493101421.2064380646,  -0.0221,  -0.0710,   0.1000,   0.0049,   0.0036,  -0.0165
1493101421.2070369720, 1493101421.2093470097,  -0.0221,  -0.0710,   0.1000,   0.0049,   0.0036,  -0.0171
1493101421.2099459171, 1493101421.2126400471,  -0.0221,  -0.0710,   0.1000,   0.0045,   0.0038,  -0.0171
1493101421.2132411003, 1493101421.2155900002,  -0.0221,  -0.0710,   0.1000,   0.0045,   0.0038,  -0.0171
1493101421.2161879539, 1493101421.2184948921,  -0.0221,  -0.0710,   0.1000,   0.0045,   0.0038,  -0.0171
1493101421.2190918922, 1493101421.2213959694,  -0.0214,  -0.0710,   0.1009,   0.0050,   0.0033,  -0.0170
1493101421.2219939232, 1493101421.2243740559,  -0.0214,  -0.0710,   0.1009,   0.0050,   0.0033,  -0.0170
1493101421.2249729633, 1493101421.2272710800,  -0.0214,  -0.0710,   0.1009,   0.0050,   0.0033,  -0.0170
1493101421.2278680801, 1493101421.2301630974,  -0.0214,  -0.0710,   0.1009,   0.0050,   0.0033,  -0.0167
1493101421.2307629585, 1493101421.2332410812,  -0.0214,  -0.0710,   0.1009,   0.0064,   0.0029,  -0.0167
1493101421.2338380814, 1493101421.2361340523,  -0.0214,  -0.0710,   0.1009,   0.0064,   0.0029,  -0.0167
1493101421.2367320061, 1493101421.2390260696,  -0.0214,  -0.0710,   0.1009,   0.0064,   0.0029,  -0.0167
1493101421.2396240234, 1493101421.2419970036,  -0.0214,  -0.0717,   0.0996,   0.0075,   0.0027,  -0.0168
1493101421.2426021099, 1493101421.2450249195,  -0.0214,  -0.0717,   0.0996,   0.0075,   0.0027,  -0.0168
1493101421.2456309795, 1493101421.2480599880,  -0.0214,  -0.0717,   0.0996,   0.0075,   0.0027,  -0.0168
1493101421.2486650944, 1493101421.2511520386,  -0.0214,  -0.0717,   0.0996,   0.0075,   0.0026,  -0.0176
1493101421.2517509460, 1493101421.2540509701,  -0.0214,  -0.0717,   0.0996,   0.0077,   0.0026,  -0.0176
1493101421.2546501160, 1493101421.2569530010,  -0.0214,  -0.0717,   0.0996,   0.0077,   0.0026,  -0.0176
1493101421.2575519085, 1493101421.2598500252,  -0.0214,  -0.0714,   0.1000,   0.0077,   0.0026,  -0.0176
1493101421.2604489326, 1493101421.2627561092,  -0.0221,  -0.0714,   0.1000,   0.0081,   0.0032,  -0.0172
1493101421.2633540630, 1493101421.2656519413,  -0.0221,  -0.0714,   0.1000,   0.0081,   0.0032,  -0.0172
1493101421.2662510872, 1493101421.2685439587,  -0.0221,  -0.0714,   0.1000,   0.0081,   0.0032,  -0.0172
1493101421.2691409588, 1493101421.2715370655,  -0.0221,  -0.0714,   0.1000,   0.0081,   0.0025,  -0.0162
1493101421.2721359730, 1493101421.2744350433,  -0.0221,  -0.0714,   0.1000,   0.0079,   0.0025,  -0.0162
1493101421.2750339508, 1493101421.2773330212,  -0.0221,  -0.0714,   0.1000,   0.0079,   0.0025,  -0.0162
1493101421.2779309750, 1493101421.2802340984,  -0.0225,  -0.0714,   0.0996,   0.0079,   0.0025,  -0.0162
1493101421.2808330059, 1493101421.2832551003,  -0.0225,  -0.0714,   0.0996,   0.0064,   0.0037,  -0.0168
1493101421.2838590145, 1493101421.2862811089,  -0.0225,  -0.0714,   0.0996,   0.0064,   0.0037,  -0.0168
1493101421.2868869305, 1493101421.2895050049,  -0.0225,  -0.0714,   0.0996,   0.0064,   0.0037,  -0.0168
1493101421.2901089191, 1493101421.2929530144,  -0.0225,  -0.0714,   0.0996,   0.0061,   0.0033,  -0.0174
1493101421.2935600281, 1493101421.2959899902,  -0.0225,  -0.0714,   0.0996,   0.0061,   0.0033,  -0.0174
1493101421.2965950966, 1493101421.2990200520,  -0.0225,  -0.0714,   0.0988,   0.0061,   0.0033,  -0.0174
1493101421.2996249199, 1493101421.3020660877,  -0.0216,  -0.0712,   0.0988,   0.0061,   0.0033,  -0.0166
1493101421.3026709557, 1493101421.3050899506,  -0.0216,  -0.0712,   0.0988,   0.0049,   0.0035,  -0.0166
1493101421.3056960106, 1493101421.3081200123,  -0.0216,  -0.0712,   0.0988,   0.0049,   0.0035,  -0.0166
1493101421.3087251186, 1493101421.3111710548,  -0.0216,  -0.0712,   0.0988,   0.0049,   0.0035,  -0.0166
1493101421.3117771149, 1493101421.3141970634,  -0.0216,  -0.0712,   0.0988,   0.0049,   0.0040,  -0.0165
1493101421.3148019314, 1493101421.3172209263,  -0.0216,  -0.0712,   0.0988,   0.0049,   0.0040,  -0.0165
1493101421.3178260326, 1493101421.3202500343,  -0.0220,  -0.0710,   0.1000,   0.0049,   0.0040,  -0.0165
1493101421.3208549023, 1493101421.3231570721,  -0.0220,  -0.0710,   0.1000,   0.0049,   0.0031,  -0.0168
1493101421.3237569332, 1493101421.3260610104,  -0.0220,  -0.0710,   0.1000,   0.0055,   0.0031,  -0.0168
1493101421.3266599178, 1493101421.3289570808,  -0.0220,  -0.0710,   0.1000,   0.0055,   0.0031,  -0.0168
1493101421.3295559883, 1493101421.3319098949,  -0.0220,  -0.0710,   0.1000,   0.0055,   0.0031,  -0.0168
1493101421.3325099945, 1493101421.3348090649,  -0.0220,  -0.0710,   0.1000,   0.0067,   0.0036,  -0.0173
1493101421.3354070187, 1493101421.3377029896,  -0.0220,  -0.0710,   0.1000,   0.0067,   0.0036,  -0.0173
1493101421.3383009434, 1493101421.3415000439,  -0.0224,  -0.0709,   0.1009,   0.0067,   0.0036,  -0.0173
1493101421.3420999050, 1493101421.3443989754,  -0.0224,  -0.0709,   0.1009,   0.0069,   0.0032,  -0.0179
1493101421.3449969292, 1493101421.3472828865,  -0.0224,  -0.0709,   0.1009,   0.0069,   0.0032,  -0.0179
1493101421.3478810787, 1493101421.3501739502,  -0.0224,  -0.0709,   0.1009,   0.0069,   0.0032,  -0.0179
1493101421.3507719040, 1493101421.3531839848,  -0.0224,  -0.0709,   0.1009,   0.0069,   0.0032,  -0.0179
1493101421.3537819386, 1493101421.3560709953,  -0.0224,  -0.0709,   0.1009,   0.0077,   0.0032,  -0.0171
1493101421.3566699028, 1493101421.3589699268,  -0.0224,  -0.0710,   0.0999,   0.0077,   0.0032,  -0.0171
1493101421.3595669270, 1493101421.3619379997,  -0.0216,  -0.0710,   0.0999,   0.0077,   0.0032,  -0.0171
1493101421.3625359535, 1493101421.3648290634,  -0.0216,  -0.0710,   0.0999,   0.0075,   0.0040,  -0.0164
1493101421.3654270172, 1493101421.3677198887,  -0.0216,  -0.0710,   0.0999,   0.0075,   0.0040,  -0.0164
1493101421.3683190346, 1493101421.3706090450,  -0.0216,  -0.0710,   0.0999,   0.0075,   0.0040,  -0.0164
1493101421.3712079525, 1493101421.3735029697,  -0.0216,  -0.0710,   0.0999,   0.0075,   0.0040,  -0.0164
1493101421.3741009235, 1493101421.3763880730,  -0.0216,  -0.0710,   0.0999,   0.0053,   0.0033,  -0.0162
1493101421.3769860268, 1493101421.3792769909,  -0.0222,  -0.0710,   0.1008,   0.0053,   0.0033,  -0.0162
1493101421.3798758984, 1493101421.3821790218,  -0.0222,  -0.0710,   0.1008,   0.0053,   0.0033,  -0.0162
1493101421.3827769756, 1493101421.3850710392,  -0.0222,  -0.0710,   0.1008,   0.0048,   0.0038,  -0.0161
1493101421.3856689930, 1493101421.3879659176,  -0.0222,  -0.0710,   0.1008,   0.0048,   0.0038,  -0.0161
1493101421.3885641098, 1493101421.3908600807,  -0.0222,  -0.0710,   0.1008,   0.0048,   0.0038,  -0.0161
1493101421.3914549351, 1493101421.3937520981,  -0.0222,  -0.0710,   0.1008,   0.0048,   0.0038,  -0.0161
1493101421.3943519592, 1493101421.3966450691,  -0.0222,  -0.0710,   0.1008,   0.0050,   0.0039,  -0.0167
1493101421.3972420692, 1493101421.3995339870,  -0.0222,  -0.0714,   0.1003,   0.0050,   0.0039,  -0.0167
1493101421.4001328945, 1493101421.4025089741,  -0.0222,  -0.0714,   0.1003,   0.0050,   0.0039,  -0.0167
1493101421.4031078815, 1493101421.4054050446,  -0.0222,  -0.0714,   0.1003,   0.0050,   0.0042,  -0.0172
1493101421.4060020447, 1493101421.4083609581,  -0.0222,  -0.0714,   0.1003,   0.0057,   0.0042,  -0.0172
1493101421.4089620113, 1493101421.4117391109,  -0.0222,  -0.0714,   0.1003,   0.0057,   0.0042,  -0.0172
1493101421.4123449326, 1493101421.4148280621,  -0.0222,  -0.0714,   0.1003,   0.0057,   0.0042,  -0.0172
1493101421.4154350758, 1493101421.4178609848,  -0.0222,  -0.0714,   0.1001,   0.0057,   0.0037,  -0.0172
1493101421.4184648991, 1493101421.4208879471,  -0.0222,  -0.0712,   0.1001,   0.0057,   0.0037,  -0.0172
1493101421.4215381145, 1493101421.4239630699,  -0.0222,  -0.0712,   0.1001,   0.0057,   0.0037,  -0.0172
1493101421.4245679379, 1493101421.4269928932,  -0.0222,  -0.0712,   0.1001,   0.0058,   0.0036,  -0.0170
1493101421.4275999069, 1493101421.4300251007,  -0.0222,  -0.0712,   0.1001,   0.0058,   0.0036,  -0.0170
1493101421.4306299686, 1493101421.4330670834,  -0.0222,  -0.0712,   0.1001,   0.0058,   0.0036,  -0.0170
1493101421.4336729050, 1493101421.4360990524,  -0.0222,  -0.0712,   0.1001,   0.0058,   0.0037,  -0.0167
1493101421.4367029667, 1493101421.4391310215,  -0.0218,  -0.0713,   0.1012,   0.0067,   0.0037,  -0.0167
1493101421.4397358894, 1493101421.4421129227,  -0.0218,  -0.0713,   0.1012,   0.0067,   0.0037,  -0.0167
1493101421.4427089691, 1493101421.4450130463,  -0.0218,  -0.0713,   0.1012,   0.0067,   0.0037,  -0.0167
1493101421.4456119537, 1493101421.4479138851,  -0.0218,  -0.0713,   0.1012,   0.0063,   0.0044,  -0.0167
1493101421.4485120773, 1493101421.4508109093,  -0.0218,  -0.0713,   0.1012,   0.0063,   0.0044,  -0.0167
1493101421.4514069557, 1493101421.4537079334,  -0.0218,  -0.0713,   0.1012,   0.0063,   0.0044,  -0.0167
1493101421.4543070793, 1493101421.4566009045,  -0.0218,  -0.0713,   0.1012,   0.0063,   0.0044,  -0.0162
1493101421.4571969509, 1493101421.4594919682,  -0.0223,  -0.0713,   0.0998,   0.0037,   0.0031,  -0.0162
1493101421.4600899220, 1493101421.4623930454,  -0.0223,  -0.0713,   0.0998,   0.0037,   0.0031,  -0.0162
1493101421.4629919529, 1493101421.4652850628,  -0.0223,  -0.0713,   0.0998,   0.0037,   0.0031,  -0.0162
1493101421.4658820629, 1493101421.4681758881,  -0.0223,  -0.0713,   0.0998,   0.0054,   0.0042,  -0.0173
1493101421.4687740803, 1493101421.4711089134,  -0.0223,  -0.0713,   0.0998,   0.0054,   0.0042,  -0.0173
1493101421.4717090130, 1493101421.4740109444,  -0.0223,  -0.0713,   0.0998,   0.0054,   0.0042,  -0.0173
1493101421.4746088982, 1493101421.4769129753,  -0.0223,  -0.0713,   0.0998,   0.0054,   0.0042,  -0.0165
1493101421.4775118828, 1493101421.4798090458,  -0.0225,  -0.0707,   0.1006,   0.0071,   0.0048,  -0.0165
1493101421.4804060459, 1493101421.4828948975,  -0.0225,  -0.0707,   0.1006,   0.0071,   0.0048,  -0.0165
1493101421.4835019112, 1493101421.4859271049,  -0.0225,  -0.0707,   0.1006,   0.0071,   0.0048,  -0.0165
1493101421.4865310192, 1493101421.4889519215,  -0.0225,  -0.0707,   0.1006,   0.0049,   0.0027,  -0.0167
1493101421.4895589352, 1493101421.4919888973,  -0.0225,  -0.0707,   0.1006,   0.0049,   0.0027,  -0.0167
1493101421.4925940037, 1493101421.4950160980,  -0.0225,  -0.0707,   0.1006,   0.0049,   0.0027,  -0.0167
1493101421.4956219196, 1493101421.4980409145,  -0.0216,  -0.0718,   0.1000,   0.0049,   0.0034,  -0.0172
1493101421.4986450672, 1493101421.5010669231,  -0.0216,  -0.0718,   0.1000,   0.0055,   0.0034,  -0.0172
1493101421.5016720295, 1493101421.5040929317,  -0.0216,  -0.0718,   0.1000,   0.0055,   0.0034,  -0.0172
1493101421.5046980381, 1493101421.5071129799,  -0.0216,  -0.0718,   0.1000,   0.0055,   0.0034,  -0.0172
1493101421.5077180862, 1493101421.5101399422,  -0.0216,  -0.0718,   0.1000,   0.0072,   0.0042,  -0.0170
1493101421.5107450485, 1493101421.5130650997,  -0.0216,  -0.0718,   0.1000,   0.0072,   0.0042,  -0.0170
1493101421.5136640072, 1493101421.5159599781,  -0.0216,  -0.0718,   0.1000,   0.0072,   0.0042,  -0.0170
1493101421.5165579319, 1493101421.5188529491,  -0.0217,  -0.0717,   0.0992,   0.0055,   0.0028,  -0.0179
1493101421.5194509029, 1493101421.5218210220,  -0.0217,  -0.0717,   0.0992,   0.0055,   0.0028,  -0.0179
1493101421.5224189758, 1493101421.5247199535,  -0.0217,  -0.0717,   0.0992,   0.0055,   0.0028,  -0.0179
1493101421.5253190994, 1493101421.5276160240,  -0.0217,  -0.0717,   0.0992,   0.0055,   0.0028,  -0.0179
1493101421.5282149315, 1493101421.5305130482,  -0.0217,  -0.0717,   0.0992,   0.0071,   0.0028,  -0.0168
1493101421.5311179161, 1493101421.5335400105,  -0.0217,  -0.0717,   0.0992,   0.0071,   0.0028,  -0.0168
1493101421.5341470242, 1493101421.5365660191,  -0.0217,  -0.0717,   0.0992,   0.0071,   0.0028,  -0.0168
1493101421.5373139381, 1493101421.5397229195,  -0.0216,  -0.0706,   0.0999,   0.0082,   0.0031,  -0.0172
1493101421.5403280258, 1493101421.5431520939,  -0.0216,  -0.0706,   0.0999,   0.0082,   0.0031,  -0.0172
1493101421.5437579155, 1493101421.5461800098,  -0.0216,  -0.0706,   0.0999,   0.0082,   0.0031,  -0.0172
1493101421.5467870235, 1493101421.5492160320,  -0.0216,  -0.0706,   0.0999,   0.0082,   0.0031,  -0.0175
1493101421.5498189926, 1493101421.5522589684,  -0.0216,  -0.0706,   0.0999,   0.0072,   0.0030,  -0.0175
1493101421.5528650284, 1493101421.5552909374,  -0.0216,  -0.0706,   0.0999,   0.0072,   0.0030,  -0.0175
1493101421.5558969975, 1493101421.5583229065,  -0.0208,  -0.0710,   0.0994,   0.0072,   0.0030,  -0.0175
1493101421.5589289665, 1493101421.5613429546,  -0.0208,  -0.0710,   0.0994,   0.0077,   0.0040,  -0.0177
1493101421.5619421005, 1493101421.5642418861,  -0.0208,  -0.0710,   0.0994,   0.0077,   0.0040,  -0.0177
1493101421.5648388863, 1493101421.5671350956,  -0.0208,  -0.0710,   0.0994,   0.0077,   0.0040,  -0.0177
1493101421.5677330494, 1493101421.5700318813,  -0.0208,  -0.0710,   0.0994,   0.0077,   0.0032,  -0.0170
1493101421.5706288815, 1493101421.5730869770,  -0.0208,  -0.0710,   0.0994,   0.0049,   0.0032,  -0.0170
1493101421.5736880302, 1493101421.5759971142,  -0.0208,  -0.0710,   0.0994,   0.0049,   0.0032,  -0.0170
1493101421.5765929222, 1493101421.5788900852,  -0.0218,  -0.0717,   0.0997,   0.0049,   0.0032,  -0.0170
1493101421.5794889927, 1493101421.5817980766,  -0.0218,  -0.0717,   0.0997,   0.0036,   0.0031,  -0.0174
1493101421.5823979378, 1493101421.5847020149,  -0.0218,  -0.0717,   0.0997,   0.0036,   0.0031,  -0.0174
1493101421.5852999687, 1493101421.5875999928,  -0.0218,  -0.0717,   0.0997,   0.0036,   0.0031,  -0.0174
1493101421.5882000923, 1493101421.5904951096,  -0.0218,  -0.0717,   0.0997,   0.0036,   0.0033,  -0.0167
1493101421.5912289619, 1493101421.5935420990,  -0.0218,  -0.0717,   0.0997,   0.0056,   0.0033,  -0.0167
1493101421.5941410065, 1493101421.5964400768,  -0.0218,  -0.0717,   0.0997,   0.0056,   0.0033,  -0.0167
1493101421.5970389843, 1493101421.5993380547,  -0.0216,  -0.0712,   0.0997,   0.0056,   0.0033,  -0.0167
1493101421.5999350548, 1493101421.6024699211,  -0.0216,  -0.0712,   0.0997,   0.0049,   0.0032,  -0.0174
1493101421.6030759811, 1493101421.6055009365,  -0.0216,  -0.0712,   0.0997,   0.0049,   0.0032,  -0.0174
1493101421.6061050892, 1493101421.6085290909,  -0.0216,  -0.0712,   0.0997,   0.0049,   0.0032,  -0.0174
1493101421.6091361046, 1493101421.6115410328,  -0.0216,  -0.0712,   0.0997,   0.0055,   0.0032,  -0.0172
1493101421.6121389866, 1493101421.6145110130,  -0.0216,  -0.0712,   0.0997,   0.0055,   0.0032,  -0.0172
1493101421.6151099205, 1493101421.6174108982,  -0.0219,  -0.0712,   0.0996,   0.0055,   0.0032,  -0.0172
1493101421.6180078983, 1493101421.6203019619,  -0.0219,  -0.0712,   0.0996,   0.0055,   0.0032,  -0.0172
1493101421.6209440231, 1493101421.6233689785,  -0.0219,  -0.0712,   0.0996,   0.0076,   0.0039,  -0.0172
1493101421.6239759922, 1493101421.6264050007,  -0.0219,  -0.0712,   0.0996,   0.0076,   0.0039,  -0.0172
1493101421.6270101070, 1493101421.6294319630,  -0.0219,  -0.0712,   0.0996,   0.0076,   0.0039,  -0.0172
1493101421.6300380230, 1493101421.6324000359,  -0.0219,  -0.0712,   0.0996,   0.0074,   0.0029,  -0.0174
1493101421.6329970360, 1493101421.6352970600,  -0.0219,  -0.0712,   0.0996,   0.0074,   0.0029,  -0.0174
1493101421.6358959675, 1493101421.6381909847,  -0.0218,  -0.0714,   0.1000,   0.0074,   0.0029,  -0.0174
1493101421.6387879848, 1493101421.6411359310,  -0.0218,  -0.0714,   0.1000,   0.0074,   0.0029,  -0.0174
1493101421.6417360306, 1493101421.6440279484,  -0.0218,  -0.0714,   0.1000,   0.0072,   0.0030,  -0.0170
1493101421.6446270943, 1493101421.6469180584,  -0.0218,  -0.0714,   0.1000,   0.0072,   0.0030,  -0.0170
1493101421.6475150585, 1493101421.6498150826,  -0.0218,  -0.0714,   0.1000,   0.0072,   0.0030,  -0.0170
1493101421.6504139900, 1493101421.6528589725,  -0.0218,  -0.0714,   0.1000,   0.0071,   0.0039,  -0.0174
1493101421.6534569263, 1493101421.6557569504,  -0.0218,  -0.0714,   0.1005,   0.0071,   0.0039,  -0.0174
1493101421.6563580036, 1493101421.6586520672,  -0.0223,  -0.0711,   0.1005,   0.0071,   0.0039,  -0.0174
1493101421.6592509747, 1493101421.6615560055,  -0.0223,  -0.0711,   0.1005,   0.0071,   0.0039,  -0.0174
1493101421.6621539593, 1493101421.6644508839,  -0.0223,  -0.0711,   0.1005,   0.0063,   0.0035,  -0.0172
1493101421.6650478840, 1493101421.6673479080,  -0.0223,  -0.0711,   0.1005,   0.0063,   0.0035,  -0.0172
1493101421.6679461002, 1493101421.6702420712,  -0.0223,  -0.0711,   0.1005,   0.0063,   0.0035,  -0.0172
1493101421.6708390713, 1493101421.6734309196,  -0.0223,  -0.0711,   0.1005,   0.0054,   0.0041,  -0.0175
1493101421.6740350723, 1493101421.6764249802,  -0.0219,  -0.0710,   0.1003,   0.0054,   0.0041,  -0.0175
1493101421.6771600246, 1493101421.6795909405,  -0.0219,  -0.0710,   0.1003,   0.0054,   0.0041,  -0.0175
1493101421.6805799007, 1493101421.6830229759,  -0.0219,  -0.0710,   0.1003,   0.0054,   0.0032,  -0.0168
1493101421.6836309433, 1493101421.6860520840,  -0.0219,  -0.0710,   0.1003,   0.0047,   0.0032,  -0.0168
1493101421.6866579056, 1493101421.6890830994,  -0.0219,  -0.0710,   0.1003,   0.0047,   0.0032,  -0.0168
1493101421.6896889210, 1493101421.6921529770,  -0.0219,  -0.0710,   0.1003,   0.0047,   0.0032,  -0.0168
1493101421.6927590370, 1493101421.6951770782,  -0.0219,  -0.0710,   0.0991,   0.0049,   0.0029,  -0.0173
1493101421.6957828999, 1493101421.6982040405,  -0.0209,  -0.0716,   0.0991,   0.0049,   0.0029,  -0.0173
1493101421.6988079548, 1493101421.7012429237,  -0.0209,  -0.0716,   0.0991,   0.0049,   0.0029,  -0.0173
1493101421.7018489838, 1493101421.7042739391,  -0.0209,  -0.0716,   0.0991,   0.0067,   0.0034,  -0.0175
1493101421.7048790455, 1493101421.7073059082,  -0.0209,  -0.0716,   0.0991,   0.0067,   0.0034,  -0.0175
1493101421.7079110146, 1493101421.7103340626,  -0.0209,  -0.0716,   0.0991,   0.0067,   0.0034,  -0.0175
1493101421.7109479904, 1493101421.7132480145,  -0.0209,  -0.0716,   0.0991,   0.0067,   0.0034,  -0.0175
1493101421.7138469219, 1493101421.7161428928,  -0.0220,  -0.0716,   0.0999,   0.0076,   0.0027,  -0.0167
1493101421.7167398930, 1493101421.7190380096,  -0.0220,  -0.0716,   0.0999,   0.0076,   0.0027,  -0.0167
1493101421.7196359634, 1493101421.7220520973,  -0.0220,  -0.0716,   0.0999,   0.0076,   0.0027,  -0.0167
1493101421.7226510048, 1493101421.7249500751,  -0.0220,  -0.0716,   0.0999,   0.0090,   0.0028,  -0.0172
1493101421.7255480289, 1493101421.7278499603,  -0.0220,  -0.0716,   0.0999,   0.0090,   0.0028,  -0.0172
1493101421.7284479141, 1493101421.7307429314,  -0.0220,  -0.0716,   0.0999,   0.0090,   0.0028,  -0.0172
1493101421.7313470840, 1493101421.7337698936,  -0.0220,  -0.0716,   0.0999,   0.0090,   0.0028,  -0.0172
1493101421.7343769073, 1493101421.7367959023,  -0.0222,  -0.0710,   0.1002,   0.0107,   0.0025,  -0.0179
1493101421.7374029160, 1493101421.7398300171,  -0.0222,  -0.0710,   0.1002,   0.0107,   0.0025,  -0.0179
1493101421.7404339314, 1493101421.7428650856,  -0.0222,  -0.0710,   0.1002,   0.0107,   0.0025,  -0.0179
1493101421.7434699535, 1493101421.7458920479,  -0.0222,  -0.0710,   0.1002,   0.0098,   0.0026,  -0.0170
1493101421.7464969158, 1493101421.7489159107,  -0.0222,  -0.0710,   0.1002,   0.0098,   0.0026,  -0.0170
1493101421.7495200634, 1493101421.7519500256,  -0.0222,  -0.0710,   0.1002,   0.0098,   0.0026,  -0.0170
1493101421.7525560856, 1493101421.7549710274,  -0.0222,  -0.0710,   0.1013,   0.0098,   0.0026,  -0.0170
1493101421.7555758953, 1493101421.7579948902,  -0.0222,  -0.0707,   0.1013,   0.0083,   0.0035,  -0.0170
1493101421.7586009502, 1493101421.7610309124,  -0.0222,  -0.0707,   0.1013,   0.0083,   0.0035,  -0.0170
1493101421.7616300583, 1493101421.7639300823,  -0.0222,  -0.0707,   0.1013,   0.0083,   0.0035,  -0.0170
1493101421.7645280361, 1493101421.7668290138,  -0.0222,  -0.0707,   0.1013,   0.0060,   0.0037,  -0.0172
1493101421.7674279213, 1493101421.7697279453,  -0.0222,  -0.0707,   0.1013,   0.0060,   0.0037,  -0.0172
1493101421.7703249454, 1493101421.7727680206,  -0.0222,  -0.0707,   0.1013,   0.0060,   0.0037,  -0.0172
1493101421.7733750343, 1493101421.7757980824,  -0.0215,  -0.0710,   0.1004,   0.0060,   0.0046,  -0.0170
1493101421.7764019966, 1493101421.7788200378,  -0.0215,  -0.0710,   0.1004,   0.0037,   0.0046,  -0.0170
1493101421.7794270515, 1493101421.7818560600,  -0.0215,  -0.0710,   0.1004,   0.0037,   0.0046,  -0.0170
1493101421.7824609280, 1493101421.7848799229,  -0.0215,  -0.0710,   0.1004,   0.0037,   0.0046,  -0.0170
1493101421.7854859829, 1493101421.7881040573,  -0.0215,  -0.0710,   0.1004,   0.0018,   0.0035,  -0.0168
1493101421.7887089252, 1493101421.7911369801,  -0.0215,  -0.0710,   0.1004,   0.0018,   0.0035,  -0.0168
1493101421.7918369770, 1493101421.7942860126,  -0.0215,  -0.0710,   0.0991,   0.0018,   0.0035,  -0.0168
1493101421.7948911190, 1493101421.7973120213,  -0.0223,  -0.0714,   0.0991,   0.0024,   0.0040,  -0.0172
1493101421.7979168892, 1493101421.8003408909,  -0.0223,  -0.0714,   0.0991,   0.0024,   0.0040,  -0.0172
1493101421.8009569645, 1493101421.8033790588,  -0.0223,  -0.0714,   0.0991,   0.0024,   0.0040,  -0.0172
1493101421.8039829731, 1493101421.8064069748,  -0.0223,  -0.0714,   0.0991,   0.0024,   0.0040,  -0.0166
1493101421.8070108891, 1493101421.8094348907,  -0.0223,  -0.0714,   0.0991,   0.0040,   0.0042,  -0.0166
1493101421.8100409508, 1493101421.8123989105,  -0.0223,  -0.0714,   0.0991,   0.0040,   0.0042,  -0.0166
1493101421.8129971027, 1493101421.8153040409,  -0.0223,  -0.0714,   0.0994,   0.0040,   0.0042,  -0.0166
1493101421.8159029484, 1493101421.8182020187,  -0.0223,  -0.0714,   0.0994,   0.0068,   0.0035,  -0.0176
1493101421.8187990189, 1493101421.8211650848,  -0.0223,  -0.0714,   0.0994,   0.0068,   0.0035,  -0.0176
1493101421.8217630386, 1493101421.8240659237,  -0.0223,  -0.0714,   0.0994,   0.0068,   0.0035,  -0.0176
1493101421.8246641159, 1493101421.8269619942,  -0.0223,  -0.0714,   0.0994,   0.0068,   0.0035,  -0.0175
1493101421.8275609016, 1493101421.8298609257,  -0.0223,  -0.0714,   0.0994,   0.0090,   0.0023,  -0.0175
1493101421.8304579258, 1493101421.8327660561,  -0.0223,  -0.0714,   0.0994,   0.0090,   0.0023,  -0.0175
1493101421.8333649635, 1493101421.8356649876,  -0.0218,  -0.0709,   0.1009,   0.0090,   0.0023,  -0.0175
1493101421.8362629414, 1493101421.8385601044,  -0.0218,  -0.0709,   0.1009,   0.0099,   0.0017,  -0.0176
1493101421.8391580582, 1493101421.8416500092,  -0.0218,  -0.0709,   0.1009,   0.0099,   0.0017,  -0.0176
1493101421.8422489166, 1493101421.8445510864,  -0.0218,  -0.0709,   0.1009,   0.0099,   0.0017,  -0.0176
1493101421.8451480865, 1493101421.8474550247,  -0.0218,  -0.0709,   0.1009,   0.0099,   0.0017,  -0.0179
1493101421.8480539322, 1493101421.8503570557,  -0.0218,  -0.0709,   0.1009,   0.0092,   0.0025,  -0.0179
1493101421.8510580063, 1493101421.8534851074,  -0.0218,  -0.0709,   0.1009,   0.0092,   0.0025,  -0.0179
1493101421.8540909290, 1493101421.8565099239,  -0.0218,  -0.0705,   0.1013,   0.0092,   0.0025,  -0.0179
1493101421.8571140766, 1493101421.8595380783,  -0.0218,  -0.0705,   0.1013,   0.0070,   0.0031,  -0.0174
1493101421.8601429462, 1493101421.8625009060,  -0.0218,  -0.0705,   0.1013,   0.0070,   0.0031,  -0.0174
1493101421.8630979061, 1493101421.8654010296,  -0.0218,  -0.0705,   0.1013,   0.0070,   0.0031,  -0.0174
1493101421.8659999371, 1493101421.8682949543,  -0.0218,  -0.0705,   0.1013,   0.0070,   0.0033,  -0.0164
1493101421.8688950539, 1493101421.8712139130,  -0.0218,  -0.0705,   0.1013,   0.0059,   0.0033,  -0.0164
1493101421.8718171120, 1493101421.8742380142,  -0.0218,  -0.0709,   0.1006,   0.0059,   0.0033,  -0.0164
1493101421.8748440742, 1493101421.8772630692,  -0.0217,  -0.0709,   0.1006,   0.0059,   0.0033,  -0.0164
1493101421.8778660297, 1493101421.8802909851,  -0.0217,  -0.0709,   0.1006,   0.0045,   0.0045,  -0.0167
1493101421.8809359074, 1493101421.8833620548,  -0.0217,  -0.0709,   0.1006,   0.0045,   0.0045,  -0.0167
1493101421.8839669228, 1493101421.8863909245,  -0.0217,  -0.0709,   0.1006,   0.0045,   0.0045,  -0.0167
1493101421.8870000839, 1493101421.8894228935,  -0.0217,  -0.0709,   0.1006,   0.0042,   0.0043,  -0.0173
1493101421.8900260925, 1493101421.8924601078,  -0.0217,  -0.0709,   0.1006,   0.0042,   0.0043,  -0.0173
1493101421.8930659294, 1493101421.8954899311,  -0.0217,  -0.0712,   0.1007,   0.0042,   0.0043,  -0.0173
1493101421.8960950375, 1493101421.8985118866,  -0.0217,  -0.0712,   0.1007,   0.0042,   0.0043,  -0.0173
1493101421.8991189003, 1493101421.9015569687,  -0.0217,  -0.0712,   0.1007,   0.0045,   0.0044,  -0.0166
1493101421.9021620750, 1493101421.9045848846,  -0.0217,  -0.0712,   0.1007,   0.0045,   0.0044,  -0.0166
1493101421.9051890373, 1493101421.9078330994,  -0.0217,  -0.0712,   0.1007,   0.0045,   0.0044,  -0.0166
1493101421.9084379673, 1493101421.9108569622,  -0.0217,  -0.0712,   0.1007,   0.0051,   0.0043,  -0.0171
1493101421.9115319252, 1493101421.9140019417,  -0.0217,  -0.0709,   0.0997,   0.0051,   0.0043,  -0.0171
1493101421.9146010876, 1493101421.9169011116,  -0.0224,  -0.0709,   0.0997,   0.0051,   0.0043,  -0.0171
1493101421.9175000191, 1493101421.9198040962,  -0.0224,  -0.0709,   0.0997,   0.0051,   0.0039,  -0.0166
1493101421.9204020500, 1493101421.9228010178,  -0.0224,  -0.0709,   0.0997,   0.0058,   0.0039,  -0.0166
1493101421.9234809875, 1493101421.9259459972,  -0.0224,  -0.0709,   0.0997,   0.0058,   0.0039,  -0.0166
1493101421.9265520573, 1493101421.9289770126,  -0.0224,  -0.0709,   0.0997,   0.0058,   0.0039,  -0.0166
1493101421.9295830727, 1493101421.9320180416,  -0.0224,  -0.0709,   0.0997,   0.0059,   0.0038,  -0.0175
1493101421.9326241016, 1493101421.9350481033,  -0.0215,  -0.0712,   0.1001,   0.0059,   0.0038,  -0.0175
1493101421.9356539249, 1493101421.9380760193,  -0.0215,  -0.0712,   0.1001,   0.0059,   0.0038,  -0.0175
1493101421.9386808872, 1493101421.9411389828,  -0.0215,  -0.0712,   0.1001,   0.0075,   0.0034,  -0.0174
1493101421.9417378902, 1493101421.9440400600,  -0.0215,  -0.0712,   0.1001,   0.0075,   0.0034,  -0.0174
1493101421.9446370602, 1493101421.9469380379,  -0.0215,  -0.0712,   0.1001,   0.0075,   0.0034,  -0.0174
1493101421.9475350380, 1493101421.9498379230,  -0.0215,  -0.0712,   0.1001,   0.0075,   0.0034,  -0.0174
1493101421.9504370689, 1493101421.9527471066,  -0.0215,  -0.0712,   0.1000,   0.0080,   0.0034,  -0.0168
1493101421.9533441067, 1493101421.9556450844,  -0.0217,  -0.0710,   0.1000,   0.0080,   0.0034,  -0.0168
1493101421.9562439919, 1493101421.9585430622,  -0.0217,  -0.0710,   0.1000,   0.0080,   0.0034,  -0.0168
1493101421.9591419697, 1493101421.9614870548,  -0.0217,  -0.0710,   0.1000,   0.0078,   0.0036,  -0.0166
1493101421.9620850086, 1493101421.9643850327,  -0.0217,  -0.0710,   0.1000,   0.0078,   0.0036,  -0.0166
1493101421.9649829865, 1493101421.9672830105,  -0.0217,  -0.0710,   0.1000,   0.0078,   0.0036,  -0.0166
1493101421.9678819180, 1493101421.9701850414,  -0.0217,  -0.0710,   0.1000,   0.0078,   0.0036,  -0.0166
1493101421.9707829952, 1493101421.9733009338,  -0.0217,  -0.0708,   0.0998,   0.0078,   0.0032,  -0.0163
1493101421.9739050865, 1493101421.9763319492,  -0.0218,  -0.0708,   0.0998,   0.0078,   0.0032,  -0.0163
1493101421.9769370556, 1493101421.9793639183,  -0.0218,  -0.0708,   0.0998,   0.0078,   0.0032,  -0.0163
1493101421.9799680710, 1493101421.9824020863,  -0.0218,  -0.0708,   0.0998,   0.0065,   0.0032,  -0.0165
1493101421.9830060005, 1493101421.9854280949,  -0.0218,  -0.0708,   0.0998,   0.0065,   0.0032,  -0.0165
1493101421.9860320091, 1493101421.9884591103,  -0.0218,  -0.0708,   0.0998,   0.0065,   0.0032,  -0.0165
1493101421.9890649319, 1493101421.9915330410,  -0.0218,  -0.0708,   0.0998,   0.0065,   0.0032,  -0.0168
1493101421.9921391010, 1493101421.9945681095,  -0.0214,  -0.0711,   0.1005,   0.0056,   0.0037,  -0.0168
1493101421.9951739311, 1493101421.9975960255,  -0.0214,  -0.0711,   0.1005,   0.0056,   0.0037,  -0.0168
1493101421.9982008934, 1493101422.0006279945,  -0.0214,  -0.0711,   0.1005,   0.0056,   0.0037,  -0.0168
1493101422.0012431145, 1493101422.0036699772,  -0.0214,  -0.0711,   0.1005,   0.0043,   0.0038,  -0.0166
1493101422.0042738914, 1493101422.0067040920,  -0.0214,  -0.0711,   0.1005,   0.0043,   0.0038,  -0.0166
1493101422.0073111057, 1493101422.0097360611,  -0.0214,  -0.0711,   0.1005,   0.0043,   0.0038,  -0.0166
1493101422.0103399754, 1493101422.0126938820,  -0.0214,  -0.0710,   0.1010,   0.0045,   0.0040,  -0.0174
1493101422.0132930279, 1493101422.0156729221,  -0.0219,  -0.0710,   0.1010,   0.0045,   0.0040,  -0.0174
1493101422.0162749290, 1493101422.0185759068,  -0.0219,  -0.0710,   0.1010,   0.0045,   0.0040,  -0.0174
1493101422.0191750526, 1493101422.0215179920,  -0.0219,  -0.0710,   0.1010,   0.0045,   0.0040,  -0.0174
1493101422.0221168995, 1493101422.0244169235,  -0.0219,  -0.0710,   0.1010,   0.0050,   0.0037,  -0.0168
1493101422.0250139236, 1493101422.0276100636,  -0.0219,  -0.0710,   0.1010,   0.0050,   0.0037,  -0.0168
1493101422.0282099247, 1493101422.0305070877,  -0.0219,  -0.0710,   0.1010,   0.0050,   0.0037,  -0.0168
1493101422.0313830376, 1493101422.0338149071,  -0.0218,  -0.0714,   0.0995,   0.0056,   0.0029,  -0.0169
1493101422.0344231129, 1493101422.0368509293,  -0.0218,  -0.0714,   0.0995,   0.0056,   0.0029,  -0.0169
1493101422.0374538898, 1493101422.0398759842,  -0.0218,  -0.0714,   0.0995,   0.0056,   0.0029,  -0.0169
1493101422.0404810905, 1493101422.0429749489,  -0.0218,  -0.0714,   0.0995,   0.0056,   0.0029,  -0.0170
1493101422.0435800552, 1493101422.0460031033,  -0.0218,  -0.0714,   0.0995,   0.0064,   0.0032,  -0.0170
1493101422.0466089249, 1493101422.0490350723,  -0.0218,  -0.0714,   0.0995,   0.0064,   0.0032,  -0.0170
1493101422.0496399403, 1493101422.0520780087,  -0.0218,  -0.0714,   0.0995,   0.0064,   0.0032,  -0.0170
1493101422.0526859760, 1493101422.0551109314,  -0.0216,  -0.0710,   0.0995,   0.0071,   0.0029,  -0.0170
1493101422.0557150841, 1493101422.0581409931,  -0.0216,  -0.0710,   0.0995,   0.0071,   0.0029,  -0.0170
1493101422.0587470531, 1493101422.0611770153,  -0.0216,  -0.0710,   0.0995,   0.0071,   0.0029,  -0.0170
1493101422.0617749691, 1493101422.0640730858,  -0.0216,  -0.0710,   0.0995,   0.0073,   0.0029,  -0.0166
1493101422.0646710396, 1493101422.0669760704,  -0.0216,  -0.0710,   0.0995,   0.0073,   0.0029,  -0.0166
1493101422.0675740242, 1493101422.0698769093,  -0.0216,  -0.0710,   0.0995,   0.0073,   0.0029,  -0.0166
1493101422.0704751015, 1493101422.0727798939,  -0.0217,  -0.0712,   0.1007,   0.0073,   0.0029,  -0.0166
1493101422.0733780861, 1493101422.0756740570,  -0.0217,  -0.0712,   0.1007,   0.0075,   0.0036,  -0.0170
1493101422.0762720108, 1493101422.0785689354,  -0.0217,  -0.0712,   0.1007,   0.0075,   0.0036,  -0.0170
1493101422.0791659355, 1493101422.0816280842,  -0.0217,  -0.0712,   0.1007,   0.0075,   0.0036,  -0.0170
1493101422.0822260380, 1493101422.0845270157,  -0.0217,  -0.0712,   0.1007,   0.0075,   0.0034,  -0.0169
1493101422.0851249695, 1493101422.0874240398,  -0.0217,  -0.0712,   0.1007,   0.0061,   0.0034,  -0.0169
1493101422.0880229473, 1493101422.0903229713,  -0.0217,  -0.0712,   0.1007,   0.0061,   0.0034,  -0.0169
1493101422.0910449028, 1493101422.0934669971,  -0.0218,  -0.0712,   0.1008,   0.0061,   0.0034,  -0.0169
1493101422.0940721035, 1493101422.0964961052,  -0.0218,  -0.0712,   0.1008,   0.0049,   0.0041,  -0.0169
1493101422.0971000195, 1493101422.0995249748,  -0.0218,  -0.0712,   0.1008,   0.0049,   0.0041,  -0.0169
1493101422.1001310349, 1493101422.1025679111,  -0.0218,  -0.0712,   0.1008,   0.0049,   0.0041,  -0.0169
1493101422.1031730175, 1493101422.1055970192,  -0.0218,  -0.0712,   0.1008,   0.0044,   0.0039,  -0.0168
1493101422.1062018871, 1493101422.1086220741,  -0.0218,  -0.0712,   0.1008,   0.0044,   0.0039,  -0.0168
1493101422.1092269421, 1493101422.1116309166,  -0.0218,  -0.0712,   0.0997,   0.0044,   0.0039,  -0.0168
1493101422.1122291088, 1493101422.1145279408,  -0.0215,  -0.0706,   0.0997,   0.0044,   0.0039,  -0.0168
1493101422.1151258945, 1493101422.1174221039,  -0.0215,  -0.0706,   0.0997,   0.0044,   0.0040,  -0.0164
1493101422.1180191040, 1493101422.1203210354,  -0.0215,  -0.0706,   0.0997,   0.0044,   0.0040,  -0.0164
1493101422.1209509373, 1493101422.1233739853,  -0.0215,  -0.0706,   0.0997,   0.0044,   0.0040,  -0.0164
1493101422.1239769459, 1493101422.1263990402,  -0.0215,  -0.0706,   0.0997,   0.0047,   0.0038,  -0.0167
1493101422.1270051003, 1493101422.1294291019,  -0.0215,  -0.0706,   0.0997,   0.0047,   0.0038,  -0.0167
1493101422.1300330162, 1493101422.1324629784,  -0.0213,  -0.0708,   0.1003,   0.0047,   0.0038,  -0.0167
1493101422.1330690384, 1493101422.1354930401,  -0.0213,  -0.0708,   0.1003,   0.0047,   0.0038,  -0.0168
1493101422.1360960007, 1493101422.1385200024,  -0.0213,  -0.0708,   0.1003,   0.0061,   0.0034,  -0.0168
1493101422.1391270161, 1493101422.1415638924,  -0.0213,  -0.0708,   0.1003,   0.0061,   0.0034,  -0.0168
1493101422.1421680450, 1493101422.1445839405,  -0.0213,  -0.0708,   0.1003,   0.0061,   0.0034,  -0.0168
1493101422.1451900005, 1493101422.1479051113,  -0.0213,  -0.0708,   0.1003,   0.0072,   0.0036,  -0.0178
1493101422.1485099792, 1493101422.1509349346,  -0.0213,  -0.0708,   0.1003,   0.0072,   0.0036,  -0.0178
1493101422.1515901089, 1493101422.1540300846,  -0.0219,  -0.0705,   0.0999,   0.0072,   0.0036,  -0.0178
1493101422.1546289921, 1493101422.1569321156,  -0.0219,  -0.0705,   0.0999,   0.0077,   0.0031,  -0.0171
1493101422.1575319767, 1493101422.1598310471,  -0.0219,  -0.0705,   0.0999,   0.0077,   0.0031,  -0.0171
1493101422.1604290009, 1493101422.1628499031,  -0.0219,  -0.0705,   0.0999,   0.0077,   0.0031,  -0.0171
1493101422.1634569168, 1493101422.1658790112,  -0.0219,  -0.0705,   0.0999,   0.0077,   0.0031,  -0.0171
1493101422.1664841175, 1493101422.1689019203,  -0.0219,  -0.0705,   0.0999,   0.0066,   0.0032,  -0.0169
1493101422.1695079803, 1493101422.1719400883,  -0.0213,  -0.0708,   0.1005,   0.0066,   0.0032,  -0.0169
1493101422.1725440025, 1493101422.1749699116,  -0.0213,  -0.0708,   0.1005,   0.0066,   0.0032,  -0.0169
1493101422.1755750179, 1493101422.1780009270,  -0.0213,  -0.0708,   0.1005,   0.0064,   0.0031,  -0.0166
1493101422.1786060333, 1493101422.1810400486,  -0.0213,  -0.0708,   0.1005,   0.0064,   0.0031,  -0.0166
1493101422.1816389561, 1493101422.1839299202,  -0.0213,  -0.0708,   0.1005,   0.0064,   0.0031,  -0.0166
1493101422.1845281124, 1493101422.1868219376,  -0.0213,  -0.0708,   0.1005,   0.0064,   0.0031,  -0.0165
1493101422.1874198914, 1493101422.1897161007,  -0.0213,  -0.0708,   0.1005,   0.0062,   0.0031,  -0.0165
1493101422.1903150082, 1493101422.1926639080,  -0.0213,  -0.0712,   0.1003,   0.0062,   0.0031,  -0.0165
1493101422.1932630539, 1493101422.1955649853,  -0.0213,  -0.0712,   0.1003,   0.0062,   0.0031,  -0.0165
1493101422.1961638927, 1493101422.1984620094,  -0.0213,  -0.0712,   0.1003,   0.0051,   0.0034,  -0.0165
1493101422.1990609169, 1493101422.2014739513,  -0.0213,  -0.0712,   0.1003,   0.0051,   0.0034,  -0.0165
1493101422.2020719051, 1493101422.2043769360,  -0.0213,  -0.0712,   0.1003,   0.0051,   0.0034,  -0.0165
1493101422.2049760818, 1493101422.2072799206,  -0.0213,  -0.0712,   0.1003,   0.0051,   0.0034,  -0.0168
1493101422.2078781128, 1493101422.2101709843,  -0.0213,  -0.0712,   0.1003,   0.0043,   0.0041,  -0.0168
1493101422.2107698917, 1493101422.2132990360,  -0.0219,  -0.0710,   0.0995,   0.0043,   0.0041,  -0.0168
1493101422.2139029503, 1493101422.2163970470,  -0.0219,  -0.0710,   0.0995,   0.0043,   0.0041,  -0.0168
1493101422.2170031071, 1493101422.2194230556,  -0.0219,  -0.0710,   0.0995,   0.0046,   0.0036,  -0.0164
1493101422.2200269699, 1493101422.2224600315,  -0.0219,  -0.0710,   0.0995,   0.0046,   0.0036,  -0.0164
1493101422.2230639458, 1493101422.2254850864,  -0.0219,  -0.0710,   0.0995,   0.0046,   0.0036,  -0.0164
1493101422.2260880470, 1493101422.2285110950,  -0.0219,  -0.0710,   0.0995,   0.0046,   0.0032,  -0.0169
1493101422.2291169167, 1493101422.2315490246,  -0.0222,  -0.0713,   0.1011,   0.0053,   0.0032,  -0.0169
1493101422.2321538925, 1493101422.2345719337,  -0.0222,  -0.0713,   0.1011,   0.0053,   0.0032,  -0.0169
1493101422.2351770401, 1493101422.2375969887,  -0.0222,  -0.0713,   0.1011,   0.0053,   0.0032,  -0.0169
1493101422.2382009029, 1493101422.2406170368,  -0.0222,  -0.0713,   0.1011,   0.0061,   0.0035,  -0.0171
1493101422.2412281036, 1493101422.2436499596,  -0.0222,  -0.0713,   0.1011,   0.0061,   0.0035,  -0.0171
1493101422.2442550659, 1493101422.2466819286,  -0.0222,  -0.0713,   0.1011,   0.0061,   0.0035,  -0.0171
1493101422.2472870350, 1493101422.2497138977,  -0.0222,  -0.0713,   0.1011,   0.0074,   0.0035,  -0.0168
1493101422.2503190041, 1493101422.2526690960,  -0.0214,  -0.0708,   0.1001,   0.0074,   0.0035,  -0.0168
1493101422.2532680035, 1493101422.2555658817,  -0.0214,  -0.0708,   0.1001,   0.0074,   0.0035,  -0.0168
1493101422.2561650276, 1493101422.2584679127,  -0.0214,  -0.0708,   0.1001,   0.0074,   0.0035,  -0.0168
1493101422.2590661049, 1493101422.2613840103,  -0.0214,  -0.0708,   0.1001,   0.0079,   0.0035,  -0.0170
1493101422.2619829178, 1493101422.2642810345,  -0.0214,  -0.0708,   0.1001,   0.0079,   0.0035,  -0.0170
1493101422.2648799419, 1493101422.2672069073,  -0.0214,  -0.0708,   0.1001,   0.0079,   0.0035,  -0.0170
1493101422.2678079605, 1493101422.2701079845,  -0.0214,  -0.0708,   0.1003,   0.0073,   0.0035,  -0.0178
1493101422.2707068920, 1493101422.2735888958,  -0.0216,  -0.0710,   0.1003,   0.0073,   0.0035,  -0.0178
1493101422.2741940022, 1493101422.2766170502,  -0.0216,  -0.0710,   0.1003,   0.0073,   0.0035,  -0.0178
1493101422.2772219181, 1493101422.2796471119,  -0.0216,  -0.0710,   0.1003,   0.0073,   0.0035,  -0.0175
1493101422.2802510262, 1493101422.2826879025,  -0.0216,  -0.0710,   0.1003,   0.0066,   0.0031,  -0.0175
1493101422.2832930088, 1493101422.2857179642,  -0.0216,  -0.0710,   0.1003,   0.0066,   0.0031,  -0.0175
1493101422.2863221169, 1493101422.2887430191,  -0.0216,  -0.0710,   0.1003,   0.0066,   0.0031,  -0.0175
1493101422.2893490791, 1493101422.2917859554,  -0.0214,  -0.0710,   0.1002,   0.0059,   0.0035,  -0.0170
1493101422.2923910618, 1493101422.2948119640,  -0.0214,  -0.0710,   0.1002,   0.0059,   0.0035,  -0.0170
1493101422.2954180241, 1493101422.2978410721,  -0.0214,  -0.0710,   0.1002,   0.0059,   0.0035,  -0.0170
1493101422.2984449863, 1493101422.3008680344,  -0.0214,  -0.0710,   0.1002,   0.0052,   0.0038,  -0.0166
1493101422.3014779091, 1493101422.3037741184,  -0.0214,  -0.0710,   0.1002,   0.0052,   0.0038,  -0.0166
1493101422.3043720722, 1493101422.3066749573,  -0.0214,  -0.0710,   0.1002,   0.0052,   0.0038,  -0.0166
1493101422.3072741032, 1493101422.3095738888,  -0.0214,  -0.0710,   0.1009,   0.0052,   0.0038,  -0.0166
1493101422.3101720810, 1493101422.3125169277,  -0.0220,  -0.0712,   0.1009,   0.0055,   0.0043,  -0.0166
1493101422.3131148815, 1493101422.3154160976,  -0.0220,  -0.0712,   0.1009,   0.0055,   0.0043,  -0.0166
1493101422.3160150051, 1493101422.3183159828,  -0.0220,  -0.0712,   0.1009,   0.0055,   0.0043,  -0.0166
1493101422.3189129829, 1493101422.3213388920,  -0.0220,  -0.0712,   0.1009,   0.0055,   0.0040,  -0.0174
1493101422.3219399452, 1493101422.3242449760,  -0.0220,  -0.0712,   0.1009,   0.0064,   0.0040,  -0.0174
1493101422.3248429298, 1493101422.3271460533,  -0.0220,  -0.0712,   0.1009,   0.0064,   0.0040,  -0.0174
1493101422.3277440071, 1493101422.3300480843,  -0.0220,  -0.0711,   0.1005,   0.0064,   0.0040,  -0.0174
1493101422.3306460381, 1493101422.3331589699,  -0.0222,  -0.0711,   0.1005,   0.0062,   0.0034,  -0.0161
1493101422.3337640762, 1493101422.3361868858,  -0.0222,  -0.0711,   0.1005,   0.0062,   0.0034,  -0.0161
1493101422.3367919922, 1493101422.3392109871,  -0.0222,  -0.0711,   0.1005,   0.0062,   0.0034,  -0.0161
1493101422.3398170471, 1493101422.3422520161,  -0.0222,  -0.0711,   0.1005,   0.0057,   0.0028,  -0.0170
1493101422.3428568840, 1493101422.3452780247,  -0.0222,  -0.0711,   0.1005,   0.0057,   0.0028,  -0.0170
1493101422.3458828926, 1493101422.3483009338,  -0.0222,  -0.0711,   0.1005,   0.0057,   0.0028,  -0.0170
1493101422.3489050865, 1493101422.3513700962,  -0.0210,  -0.0710,   0.1003,   0.0057,   0.0028,  -0.0164
1493101422.3519749641, 1493101422.3543961048,  -0.0210,  -0.0710,   0.1003,   0.0070,   0.0027,  -0.0164
1493101422.3550009727, 1493101422.3574230671,  -0.0210,  -0.0710,   0.1003,   0.0070,   0.0027,  -0.0164
1493101422.3580269814, 1493101422.3604519367,  -0.0210,  -0.0710,   0.1003,   0.0070,   0.0027,  -0.0164
1493101422.3610661030, 1493101422.3633658886,  -0.0210,  -0.0710,   0.1003,   0.0066,   0.0027,  -0.0169
1493101422.3639640808, 1493101422.3662641048,  -0.0210,  -0.0710,   0.1003,   0.0066,   0.0027,  -0.0169
1493101422.3668630123, 1493101422.3691620827,  -0.0210,  -0.0710,   0.1000,   0.0066,   0.0027,  -0.0169
1493101422.3697609901, 1493101422.3721809387,  -0.0216,  -0.0711,   0.1000,   0.0066,   0.0027,  -0.0172
1493101422.3727860451, 1493101422.3752069473,  -0.0216,  -0.0711,   0.1000,   0.0067,   0.0032,  -0.0172
1493101422.3758130074, 1493101422.3782360554,  -0.0216,  -0.0711,   0.1000,   0.0067,   0.0032,  -0.0172
1493101422.3788409233, 1493101422.3812789917,  -0.0216,  -0.0711,   0.1000,   0.0067,   0.0032,  -0.0172
1493101422.3818840981, 1493101422.3843069077,  -0.0216,  -0.0711,   0.1000,   0.0068,   0.0034,  -0.0166
1493101422.3849120140, 1493101422.3873960972,  -0.0216,  -0.0711,   0.1000,   0.0068,   0.0034,  -0.0166
1493101422.3880040646, 1493101422.3904230595,  -0.0216,  -0.0711,   0.1000,   0.0068,   0.0034,  -0.0166
1493101422.3914210796, 1493101422.3938469887,  -0.0216,  -0.0711,   0.1000,   0.0067,   0.0036,  -0.0168
1493101422.3944509029, 1493101422.3968679905,  -0.0216,  -0.0711,   0.1000,   0.0067,   0.0036,  -0.0168
1493101422.3974730968, 1493101422.3998949528,  -0.0216,  -0.0711,   0.1000,   0.0067,   0.0036,  -0.0168
1493101422.4005010128, 1493101422.4029660225,  -0.0216,  -0.0711,   0.1000,   0.0067,   0.0036,  -0.0173
1493101422.4035708904, 1493101422.4059889317,  -0.0216,  -0.0711,   0.1000,   0.0057,   0.0041,  -0.0173
1493101422.4065940380, 1493101422.4090180397,  -0.0216,  -0.0710,   0.1001,   0.0057,   0.0041,  -0.0173
1493101422.4096240997, 1493101422.4120070934,  -0.0219,  -0.0710,   0.1001,   0.0057,   0.0041,  -0.0173
1493101422.4126069546, 1493101422.4149439335,  -0.0219,  -0.0710,   0.1001,   0.0051,   0.0039,  -0.0176
1493101422.4155418873, 1493101422.4178419113,  -0.0219,  -0.0710,   0.1001,   0.0051,   0.0039,  -0.0176
1493101422.4184410572, 1493101422.4207329750,  -0.0219,  -0.0710,   0.1001,   0.0051,   0.0039,  -0.0176
1493101422.4213290215, 1493101422.4236280918,  -0.0219,  -0.0710,   0.1001,   0.0051,   0.0039,  -0.0170
1493101422.4242269993, 1493101422.4265210629,  -0.0219,  -0.0710,   0.1001,   0.0055,   0.0040,  -0.0170
1493101422.4271199703, 1493101422.4294240475,  -0.0223,  -0.0710,   0.0996,   0.0055,   0.0040,  -0.0170
1493101422.4300210476, 1493101422.4323360920,  -0.0223,  -0.0710,   0.0996,   0.0055,   0.0040,  -0.0170
1493101422.4329340458, 1493101422.4352309704,  -0.0223,  -0.0710,   0.0996,   0.0050,   0.0038,  -0.0175
1493101422.4358279705, 1493101422.4381279945,  -0.0223,  -0.0710,   0.0996,   0.0050,   0.0038,  -0.0175
1493101422.4387280941, 1493101422.4411199093,  -0.0223,  -0.0710,   0.0996,   0.0050,   0.0038,  -0.0175
1493101422.4417209625, 1493101422.4440228939,  -0.0223,  -0.0710,   0.0996,   0.0050,   0.0038,  -0.0173
1493101422.4446198940, 1493101422.4469270706,  -0.0223,  -0.0710,   0.0996,   0.0052,   0.0037,  -0.0173
1493101422.4475250244, 1493101422.4498291016,  -0.0223,  -0.0711,   0.1013,   0.0052,   0.0037,  -0.0173
1493101422.4504261017, 1493101422.4528241158,  -0.0223,  -0.0711,   0.1013,   0.0052,   0.0037,  -0.0173
1493101422.4534239769, 1493101422.4557209015,  -0.0223,  -0.0711,   0.1013,   0.0064,   0.0032,  -0.0174
1493101422.4563210011, 1493101422.4586219788,  -0.0223,  -0.0711,   0.1013,   0.0064,   0.0032,  -0.0174
1493101422.4592189789, 1493101422.4615960121,  -0.0223,  -0.0711,   0.1013,   0.0064,   0.0032,  -0.0174
1493101422.4622020721, 1493101422.4646279812,  -0.0223,  -0.0711,   0.1013,   0.0064,   0.0032,  -0.0173
1493101422.4652309418, 1493101422.4676508904,  -0.0223,  -0.0711,   0.1013,   0.0077,   0.0037,  -0.0173
1493101422.4682569504, 1493101422.4706840515,  -0.0219,  -0.0711,   0.1017,   0.0077,   0.0037,  -0.0173
1493101422.4712979794, 1493101422.4737179279,  -0.0219,  -0.0711,   0.1017,   0.0077,   0.0037,  -0.0173
1493101422.4743249416, 1493101422.4767520428,  -0.0219,  -0.0711,   0.1017,   0.0075,   0.0035,  -0.0176
1493101422.4773559570, 1493101422.4797809124,  -0.0219,  -0.0711,   0.1017,   0.0075,   0.0035,  -0.0176
1493101422.4803860188, 1493101422.4827280045,  -0.0219,  -0.0711,   0.1017,   0.0075,   0.0035,  -0.0176
1493101422.4833259583, 1493101422.4856278896,  -0.0219,  -0.0711,   0.1017,   0.0075,   0.0037,  -0.0169
1493101422.4862270355, 1493101422.4885210991,  -0.0219,  -0.0710,   0.1014,   0.0066,   0.0037,  -0.0169
1493101422.4891200066, 1493101422.4915039539,  -0.0215,  -0.0710,   0.1014,   0.0066,   0.0037,  -0.0169
1493101422.4921030998, 1493101422.4944078922,  -0.0215,  -0.0710,   0.1014,   0.0066,   0.0037,  -0.0169
1493101422.4950070381, 1493101422.4973061085,  -0.0215,  -0.0710,   0.1014,   0.0056,   0.0042,  -0.0168
1493101422.4979031086, 1493101422.5002009869,  -0.0215,  -0.0710,   0.1014,   0.0056,   0.0042,  -0.0168
1493101422.5008010864, 1493101422.5031878948,  -0.0215,  -0.0710,   0.1014,   0.0056,   0.0042,  -0.0168
1493101422.5037870407, 1493101422.5060849190,  -0.0215,  -0.0710,   0.1014,   0.0056,   0.0042,  -0.0169
1493101422.5067160130, 1493101422.5090930462,  -0.0220,  -0.0707,   0.0999,   0.0050,   0.0041,  -0.0169
1493101422.5096919537, 1493101422.5123679638,  -0.0220,  -0.0707,   0.0999,   0.0050,   0.0041,  -0.0169
1493101422.5129730701, 1493101422.5153748989,  -0.0220,  -0.0707,   0.0999,   0.0050,   0.0041,  -0.0169
1493101422.5159790516, 1493101422.5183839798,  -0.0220,  -0.0707,   0.0999,   0.0053,   0.0039,  -0.0169
1493101422.5189878941, 1493101422.5213999748,  -0.0220,  -0.0707,   0.0999,   0.0053,   0.0039,  -0.0169
1493101422.5220019817, 1493101422.5243830681,  -0.0220,  -0.0707,   0.0999,   0.0053,   0.0039,  -0.0169
1493101422.5249860287, 1493101422.5273680687,  -0.0220,  -0.0707,   0.0999,   0.0055,   0.0034,  -0.0172
1493101422.5279710293, 1493101422.5303540230,  -0.0219,  -0.0710,   0.0997,   0.0055,   0.0034,  -0.0172
1493101422.5309579372, 1493101422.5333840847,  -0.0219,  -0.0710,   0.0997,   0.0055,   0.0034,  -0.0172
1493101422.5339889526, 1493101422.5364089012,  -0.0219,  -0.0710,   0.0997,   0.0055,   0.0034,  -0.0172
1493101422.5370140076, 1493101422.5394370556,  -0.0219,  -0.0710,   0.0997,   0.0052,   0.0034,  -0.0176
1493101422.5400431156, 1493101422.5423910618,  -0.0219,  -0.0710,   0.0997,   0.0052,   0.0034,  -0.0176
1493101422.5429909229, 1493101422.5452940464,  -0.0219,  -0.0710,   0.0997,   0.0052,   0.0034,  -0.0176
1493101422.5458910465, 1493101422.5481920242,  -0.0217,  -0.0712,   0.1004,   0.0065,   0.0035,  -0.0176
1493101422.5487899780, 1493101422.5511379242,  -0.0217,  -0.0712,   0.1004,   0.0065,   0.0035,  -0.0176
1493101422.5517361164, 1493101422.5540380478,  -0.0217,  -0.0712,   0.1004,   0.0065,   0.0035,  -0.0176
1493101422.5546360016, 1493101422.5569360256,  -0.0217,  -0.0712,   0.1004,   0.0065,   0.0035,  -0.0176
1493101422.5575349331, 1493101422.5598349571,  -0.0217,  -0.0712,   0.1004,   0.0077,   0.0028,  -0.0167
1493101422.5604319572, 1493101422.5628340244,  -0.0217,  -0.0712,   0.1004,   0.0077,   0.0028,  -0.0167
1493101422.5634338856, 1493101422.5657339096,  -0.0217,  -0.0712,   0.1004,   0.0077,   0.0028,  -0.0167
1493101422.5663321018, 1493101422.5686330795,  -0.0214,  -0.0710,   0.0998,   0.0070,   0.0034,  -0.0173
1493101422.5692310333, 1493101422.5716819763,  -0.0214,  -0.0710,   0.0998,   0.0070,   0.0034,  -0.0173
1493101422.5722899437, 1493101422.5747120380,  -0.0214,  -0.0710,   0.0998,   0.0070,   0.0034,  -0.0173
1493101422.5753169060, 1493101422.5777320862,  -0.0214,  -0.0710,   0.0998,   0.0070,   0.0034,  -0.0173
1493101422.5783379078, 1493101422.5807580948,  -0.0214,  -0.0710,   0.0998,   0.0061,   0.0038,  -0.0173
1493101422.5813729763, 1493101422.5837950706,  -0.0214,  -0.0710,   0.0998,   0.0061,   0.0038,  -0.0173
1493101422.5844020844, 1493101422.5868279934,  -0.0214,  -0.0710,   0.0998,   0.0061,   0.0038,  -0.0173
1493101422.5874340534, 1493101422.5898530483,  -0.0216,  -0.0708,   0.1002,   0.0060,   0.0045,  -0.0168
1493101422.5904591084, 1493101422.5928869247,  -0.0216,  -0.0708,   0.1002,   0.0060,   0.0045,  -0.0168
1493101422.5934910774, 1493101422.5959169865,  -0.0216,  -0.0708,   0.1002,   0.0060,   0.0045,  -0.0168
1493101422.5965220928, 1493101422.5989470482,  -0.0216,  -0.0708,   0.1002,   0.0060,   0.0041,  -0.0169
1493101422.5995509624, 1493101422.6019370556,  -0.0216,  -0.0708,   0.1002,   0.0061,   0.0041,  -0.0169
1493101422.6025359631, 1493101422.6048309803,  -0.0216,  -0.0708,   0.1002,   0.0061,   0.0041,  -0.0169
1493101422.6054289341, 1493101422.6077260971,  -0.0219,  -0.0710,   0.1012,   0.0061,   0.0041,  -0.0169
1493101422.6083250046, 1493101422.6106219292,  -0.0219,  -0.0710,   0.1012,   0.0051,   0.0037,  -0.0174
1493101422.6112179756, 1493101422.6135179996,  -0.0219,  -0.0710,   0.1012,   0.0051,   0.0037,  -0.0174
1493101422.6141149998, 1493101422.6164839268,  -0.0219,  -0.0710,   0.1012,   0.0051,   0.0037,  -0.0174
1493101422.6170830727, 1493101422.6193830967,  -0.0219,  -0.0710,   0.1012,   0.0051,   0.0036,  -0.0178
1493101422.6199800968, 1493101422.6224179268,  -0.0219,  -0.0710,   0.1012,   0.0058,   0.0036,  -0.0178
1493101422.6230230331, 1493101422.6254489422,  -0.0219,  -0.0710,   0.1012,   0.0058,   0.0036,  -0.0178
1493101422.6260519028, 1493101422.6286790371,  -0.0214,  -0.0711,   0.0991,   0.0058,   0.0036,  -0.0178
1493101422.6292860508, 1493101422.6321508884,  -0.0214,  -0.0711,   0.0991,   0.0056,   0.0037,  -0.0174
1493101422.6327569485, 1493101422.6351799965,  -0.0214,  -0.0711,   0.0991,   0.0056,   0.0037,  -0.0174
1493101422.6357870102, 1493101422.6382091045,  -0.0214,  -0.0711,   0.0991,   0.0056,   0.0037,  -0.0174
1493101422.6388139725, 1493101422.6412420273,  -0.0214,  -0.0711,   0.0991,   0.0061,   0.0038,  -0.0169
1493101422.6418480873, 1493101422.6442739964,  -0.0214,  -0.0711,   0.0991,   0.0061,   0.0038,  -0.0169
1493101422.6448800564, 1493101422.6473081112,  -0.0214,  -0.0707,   0.1001,   0.0061,   0.0038,  -0.0169
1493101422.6479129791, 1493101422.6503350735,  -0.0214,  -0.0707,   0.1001,   0.0061,   0.0037,  -0.0170
1493101422.6509521008, 1493101422.6533770561,  -0.0214,  -0.0707,   0.1001,   0.0066,   0.0037,  -0.0170
1493101422.6539840698, 1493101422.6564040184,  -0.0214,  -0.0707,   0.1001,   0.0066,   0.0037,  -0.0170
1493101422.6570100784, 1493101422.6594309807,  -0.0214,  -0.0707,   0.1001,   0.0066,   0.0037,  -0.0170
1493101422.6600379944, 1493101422.6623969078,  -0.0214,  -0.0707,   0.1001,   0.0063,   0.0038,  -0.0173
1493101422.6629960537, 1493101422.6652979851,  -0.0214,  -0.0707,   0.1001,   0.0063,   0.0038,  -0.0173
1493101422.6658959389, 1493101422.6681909561,  -0.0216,  -0.0709,   0.0999,   0.0063,   0.0038,  -0.0173
1493101422.6687889099, 1493101422.6711580753,  -0.0216,  -0.0709,   0.0999,   0.0063,   0.0033,  -0.0173
1493101422.6717569828, 1493101422.6740550995,  -0.0216,  -0.0709,   0.0999,   0.0055,   0.0033,  -0.0173
1493101422.6746540070, 1493101422.6769549847,  -0.0216,  -0.0709,   0.0999,   0.0055,   0.0033,  -0.0173
1493101422.6775529385, 1493101422.6798510551,  -0.0216,  -0.0709,   0.0999,   0.0055,   0.0033,  -0.0173
1493101422.6804490089, 1493101422.6829578876,  -0.0216,  -0.0709,   0.0999,   0.0059,   0.0033,  -0.0176
1493101422.6835570335, 1493101422.6858599186,  -0.0216,  -0.0709,   0.1007,   0.0059,   0.0033,  -0.0176
1493101422.6864590645, 1493101422.6887578964,  -0.0216,  -0.0708,   0.1007,   0.0059,   0.0033,  -0.0176
1493101422.6893548965, 1493101422.6918148994,  -0.0216,  -0.0708,   0.1007,   0.0059,   0.0029,  -0.0171
1493101422.6924140453, 1493101422.6947140694,  -0.0216,  -0.0708,   0.1007,   0.0061,   0.0029,  -0.0171
1493101422.6953129768, 1493101422.6976149082,  -0.0216,  -0.0708,   0.1007,   0.0061,   0.0029,  -0.0171
1493101422.6982119083, 1493101422.7005119324,  -0.0216,  -0.0708,   0.1007,   0.0061,   0.0029,  -0.0171
1493101422.7011198997, 1493101422.7035400867,  -0.0216,  -0.0708,   0.1007,   0.0056,   0.0019,  -0.0161
1493101422.7041459084, 1493101422.7065689564,  -0.0216,  -0.0713,   0.0993,   0.0056,   0.0019,  -0.0161
1493101422.7071759701, 1493101422.7095959187,  -0.0213,  -0.0713,   0.0993,   0.0056,   0.0019,  -0.0161
1493101422.7102000713, 1493101422.7126309872,  -0.0213,  -0.0713,   0.0993,   0.0078,   0.0016,  -0.0174
1493101422.7132370472, 1493101422.7156610489,  -0.0213,  -0.0713,   0.0993,   0.0078,   0.0016,  -0.0174
1493101422.7162671089, 1493101422.7186911106,  -0.0213,  -0.0713,   0.0993,   0.0078,   0.0016,  -0.0174
1493101422.7192978859, 1493101422.7217199802,  -0.0213,  -0.0713,   0.0993,   0.0078,   0.0016,  -0.0174
1493101422.7223179340, 1493101422.7246139050,  -0.0213,  -0.0713,   0.0993,   0.0105,   0.0014,  -0.0177
1493101422.7252120972, 1493101422.7275149822,  -0.0216,  -0.0712,   0.1002,   0.0105,   0.0014,  -0.0177
1493101422.7281138897, 1493101422.7304139137,  -0.0216,  -0.0712,   0.1002,   0.0105,   0.0014,  -0.0177
1493101422.7310810089, 1493101422.7333960533,  -0.0216,  -0.0712,   0.1002,   0.0122,   0.0014,  -0.0182
1493101422.7339949608, 1493101422.7362949848,  -0.0216,  -0.0712,   0.1002,   0.0122,   0.0014,  -0.0182
1493101422.7368929386, 1493101422.7391879559,  -0.0216,  -0.0712,   0.1002,   0.0122,   0.0014,  -0.0182
1493101422.7397849560, 1493101422.7422039509,  -0.0216,  -0.0712,   0.1002,   0.0122,   0.0014,  -0.0182
1493101422.7428100109, 1493101422.7452359200,  -0.0216,  -0.0712,   0.1080,   0.0124,   0.0016,  -0.0181
1493101422.7458400726, 1493101422.7484769821,  -0.0213,  -0.0703,   0.1016,   0.0124,   0.0016,  -0.0181
1493101422.7490820885, 1493101422.7519309521,  -0.0213,  -0.0703,   0.1016,   0.0124,   0.0016,  -0.0181
1493101422.7525370121, 1493101422.7549641132,  -0.0213,  -0.0703,   0.1016,   0.0101,   0.0035,  -0.0174
1493101422.7555689812, 1493101422.7579889297,  -0.0213,  -0.0703,   0.1016,   0.0101,   0.0035,  -0.0174
1493101422.7585949898, 1493101422.7610290051,  -0.0213,  -0.0703,   0.1016,   0.0101,   0.0035,  -0.0174
1493101422.7616341114, 1493101422.7640540600,  -0.0213,  -0.0703,   0.1016,   0.0064,   0.0044,  -0.0173
1493101422.7646598816, 1493101422.7670860291,  -0.0217,  -0.0709,   0.1014,   0.0064,   0.0044,  -0.0173
1493101422.7676899433, 1493101422.7701148987,  -0.0217,  -0.0709,   0.1014,   0.0064,   0.0044,  -0.0173
1493101422.7707209587, 1493101422.7731590271,  -0.0217,  -0.0709,   0.1014,   0.0064,   0.0044,  -0.0173
1493101422.7737629414, 1493101422.7761840820,  -0.0217,  -0.0709,   0.1014,   0.0028,   0.0049,  -0.0168
1493101422.7767889500, 1493101422.7792119980,  -0.0217,  -0.0709,   0.1014,   0.0028,   0.0049,  -0.0168
1493101422.7798171043, 1493101422.7821910381,  -0.0217,  -0.0709,   0.1014,   0.0028,   0.0049,  -0.0168
1493101422.7827899456, 1493101422.7850890160,  -0.0217,  -0.0709,   0.0993,  -0.0001,   0.0039,  -0.0166
1493101422.7856869698, 1493101422.7879819870,  -0.0215,  -0.0710,   0.0993,  -0.0001,   0.0039,  -0.0166
1493101422.7885799408, 1493101422.7908790112,  -0.0215,  -0.0710,   0.0993,  -0.0001,   0.0039,  -0.0166
1493101422.7914779186, 1493101422.7937779427,  -0.0215,  -0.0710,   0.0993,  -0.0001,   0.0039,  -0.0162
1493101422.7943749428, 1493101422.7966730595,  -0.0215,  -0.0710,   0.0993,   0.0009,   0.0031,  -0.0162
1493101422.7972710133, 1493101422.7995710373,  -0.0215,  -0.0710,   0.0993,   0.0009,   0.0031,  -0.0162
1493101422.8001699448, 1493101422.8026199341,  -0.0215,  -0.0710,   0.0993,   0.0009,   0.0031,  -0.0162
1493101422.8032178879, 1493101422.8055160046,  -0.0215,  -0.0714,   0.0993,   0.0039,   0.0031,  -0.0172
1493101422.8061130047, 1493101422.8084130287,  -0.0221,  -0.0714,   0.0993,   0.0039,   0.0031,  -0.0172
1493101422.8090109825, 1493101422.8114659786,  -0.0221,  -0.0714,   0.0993,   0.0039,   0.0031,  -0.0172
1493101422.8120710850, 1493101422.8144950867,  -0.0221,  -0.0714,   0.0993,   0.0039,   0.0031,  -0.0171
1493101422.8150999546, 1493101422.8175570965,  -0.0221,  -0.0714,   0.0993,   0.0076,   0.0031,  -0.0171
1493101422.8181629181, 1493101422.8205850124,  -0.0221,  -0.0714,   0.0993,   0.0076,   0.0031,  -0.0171
1493101422.8211970329, 1493101422.8234989643,  -0.0221,  -0.0714,   0.0993,   0.0076,   0.0031,  -0.0171
1493101422.8240981102, 1493101422.8264009953,  -0.0214,  -0.0714,   0.1001,   0.0098,   0.0026,  -0.0178
1493101422.8269999027, 1493101422.8293011189,  -0.0214,  -0.0714,   0.1001,   0.0098,   0.0026,  -0.0178
1493101422.8298981190, 1493101422.8322720528,  -0.0214,  -0.0714,   0.1001,   0.0098,   0.0026,  -0.0178
1493101422.8328781128, 1493101422.8353021145,  -0.0214,  -0.0714,   0.1001,   0.0098,   0.0026,  -0.0183
1493101422.8359069824, 1493101422.8383369446,  -0.0214,  -0.0714,   0.1001,   0.0120,   0.0030,  -0.0183
1493101422.8389439583, 1493101422.8413770199,  -0.0214,  -0.0714,   0.1001,   0.0120,   0.0030,  -0.0183
1493101422.8419818878, 1493101422.8444058895,  -0.0214,  -0.0714,   0.1014,   0.0120,   0.0030,  -0.0183
1493101422.8450109959, 1493101422.8474359512,  -0.0218,  -0.0703,   0.1014,   0.0110,   0.0033,  -0.0174
1493101422.8480410576, 1493101422.8504641056,  -0.0218,  -0.0703,   0.1014,   0.0110,   0.0033,  -0.0174
1493101422.8510990143, 1493101422.8534040451,  -0.0218,  -0.0703,   0.1014,   0.0110,   0.0033,  -0.0174
1493101422.8540019989, 1493101422.8563039303,  -0.0218,  -0.0703,   0.1014,   0.0110,   0.0041,  -0.0168
1493101422.8569040298, 1493101422.8592009544,  -0.0218,  -0.0703,   0.1014,   0.0083,   0.0041,  -0.0168
1493101422.8597989082, 1493101422.8621490002,  -0.0218,  -0.0703,   0.1014,   0.0083,   0.0041,  -0.0168
1493101422.8627450466, 1493101422.8650500774,  -0.0216,  -0.0706,   0.1010,   0.0083,   0.0041,  -0.0168
1493101422.8656489849, 1493101422.8679471016,  -0.0216,  -0.0706,   0.1010,   0.0041,   0.0044,  -0.0174
1493101422.8685441017, 1493101422.8708429337,  -0.0216,  -0.0706,   0.1010,   0.0041,   0.0044,  -0.0174
1493101422.8714430332, 1493101422.8737440109,  -0.0216,  -0.0706,   0.1010,   0.0041,   0.0044,  -0.0174
1493101422.8743429184, 1493101422.8767280579,  -0.0216,  -0.0706,   0.1010,   0.0041,   0.0042,  -0.0168
1493101422.8773379326, 1493101422.8796548843,  -0.0216,  -0.0706,   0.1010,   0.0014,   0.0042,  -0.0168
1493101422.8802549839, 1493101422.8827669621,  -0.0216,  -0.0706,   0.1010,   0.0014,   0.0042,  -0.0168
1493101422.8833699226, 1493101422.8861579895,  -0.0218,  -0.0710,   0.1005,   0.0014,   0.0042,  -0.0168
1493101422.8867650032, 1493101422.8891940117,  -0.0218,  -0.0710,   0.1005,   0.0015,   0.0044,  -0.0166
1493101422.8897991180, 1493101422.8922340870,  -0.0218,  -0.0710,   0.1005,   0.0015,   0.0044,  -0.0166
1493101422.8928399086, 1493101422.8952679634,  -0.0218,  -0.0710,   0.1005,   0.0015,   0.0044,  -0.0166
1493101422.8958721161, 1493101422.8982980251,  -0.0218,  -0.0710,   0.1005,   0.0024,   0.0027,  -0.0161
1493101422.8989050388, 1493101422.9013440609,  -0.0218,  -0.0710,   0.1005,   0.0024,   0.0027,  -0.0161
1493101422.9019489288, 1493101422.9043729305,  -0.0218,  -0.0711,   0.0993,   0.0024,   0.0027,  -0.0161
1493101422.9049789906, 1493101422.9073970318,  -0.0220,  -0.0711,   0.0993,   0.0024,   0.0027,  -0.0162
1493101422.9080018997, 1493101422.9104230404,  -0.0220,  -0.0711,   0.0993,   0.0059,   0.0031,  -0.0162
1493101422.9110391140, 1493101422.9133419991,  -0.0220,  -0.0711,   0.0993,   0.0059,   0.0031,  -0.0162
1493101422.9139399529, 1493101422.9162390232,  -0.0220,  -0.0711,   0.0993,   0.0059,   0.0031,  -0.0162
1493101422.9168379307, 1493101422.9191410542,  -0.0220,  -0.0711,   0.0993,   0.0096,   0.0023,  -0.0178
1493101422.9197390079, 1493101422.9220969677,  -0.0220,  -0.0711,   0.0993,   0.0096,   0.0023,  -0.0178
1493101422.9226949215, 1493101422.9249920845,  -0.0216,  -0.0712,   0.1005,   0.0096,   0.0023,  -0.0178
1493101422.9255909920, 1493101422.9278891087,  -0.0216,  -0.0712,   0.1005,   0.0096,   0.0023,  -0.0175
1493101422.9284861088, 1493101422.9307870865,  -0.0216,  -0.0712,   0.1005,   0.0108,   0.0026,  -0.0175
1493101422.9313869476, 1493101422.9336950779,  -0.0216,  -0.0712,   0.1005,   0.0108,   0.0026,  -0.0175
1493101422.9342930317, 1493101422.9365940094,  -0.0216,  -0.0712,   0.1005,   0.0108,   0.0026,  -0.0175
1493101422.9371910095, 1493101422.9394888878,  -0.0216,  -0.0712,   0.1005,   0.0108,   0.0027,  -0.0179
1493101422.9400858879, 1493101422.9425489902,  -0.0216,  -0.0712,   0.1005,   0.0108,   0.0027,  -0.0179
1493101422.9431529045, 1493101422.9455759525,  -0.0218,  -0.0701,   0.1017,   0.0108,   0.0027,  -0.0179
1493101422.9461829662, 1493101422.9486029148,  -0.0218,  -0.0701,   0.1017,   0.0108,   0.0027,  -0.0178
1493101422.9492070675, 1493101422.9516410828,  -0.0218,  -0.0701,   0.1017,   0.0083,   0.0025,  -0.0178
1493101422.9522469044, 1493101422.9546658993,  -0.0218,  -0.0701,   0.1017,   0.0083,   0.0025,  -0.0178
1493101422.9552719593, 1493101422.9576931000,  -0.0218,  -0.0701,   0.1017,   0.0083,   0.0025,  -0.0178
1493101422.9582979679, 1493101422.9607191086,  -0.0218,  -0.0701,   0.1017,   0.0056,   0.0038,  -0.0164
1493101422.9613349438, 1493101422.9636359215,  -0.0218,  -0.0703,   0.1009,   0.0056,   0.0038,  -0.0164
1493101422.9642350674, 1493101422.9665338993,  -0.0215,  -0.0703,   0.1009,   0.0056,   0.0038,  -0.0164
1493101422.9671320915, 1493101422.9694259167,  -0.0215,  -0.0703,   0.1009,   0.0056,   0.0043,  -0.0166
1493101422.9700219631, 1493101422.9723279476,  -0.0215,  -0.0703,   0.1009,   0.0037,   0.0043,  -0.0166
1493101422.9729280472, 1493101422.9752318859,  -0.0215,  -0.0703,   0.1009,   0.0037,   0.0043,  -0.0166
1493101422.9758300781, 1493101422.9781329632,  -0.0215,  -0.0703,   0.1009,   0.0037,   0.0043,  -0.0166
1493101422.9787321091, 1493101422.9811210632,  -0.0215,  -0.0703,   0.1009,   0.0010,   0.0041,  -0.0164
1493101422.9817299843, 1493101422.9840428829,  -0.0217,  -0.0709,   0.0998,   0.0010,   0.0041,  -0.0164
1493101422.9846398830, 1493101422.9869349003,  -0.0217,  -0.0709,   0.0998,   0.0010,   0.0041,  -0.0164
1493101422.9875349998, 1493101422.9898319244,  -0.0217,  -0.0709,   0.0998,   0.0010,   0.0043,  -0.0166
1493101422.9904301167, 1493101422.9928750992,  -0.0217,  -0.0709,   0.0998,   0.0027,   0.0043,  -0.0166
1493101422.9934799671, 1493101422.9958600998,  -0.0217,  -0.0709,   0.0998,   0.0027,   0.0043,  -0.0166
1493101422.9964790344, 1493101422.9991168976,  -0.0217,  -0.0709,   0.0998,   0.0027,   0.0043,  -0.0166
1493101422.9997229576, 1493101423.0023660660,  -0.0217,  -0.0709,   0.0998,   0.0045,   0.0036,  -0.0167
1493101423.0029709339, 1493101423.0053958893,  -0.0218,  -0.0710,   0.0985,   0.0045,   0.0036,  -0.0167
1493101423.0060029030, 1493101423.0084209442,  -0.0218,  -0.0710,   0.0985,   0.0045,   0.0036,  -0.0167
1493101423.0090260506, 1493101423.0114390850,  -0.0218,  -0.0710,   0.0985,   0.0067,   0.0026,  -0.0168
1493101423.0120389462, 1493101423.0143411160,  -0.0218,  -0.0710,   0.0985,   0.0067,   0.0026,  -0.0168
1493101423.0149390697, 1493101423.0173599720,  -0.0218,  -0.0710,   0.0985,   0.0067,   0.0026,  -0.0168
1493101423.0179591179, 1493101423.0202600956,  -0.0218,  -0.0710,   0.0985,   0.0067,   0.0026,  -0.0173
1493101423.0208580494, 1493101423.0232460499,  -0.0218,  -0.0707,   0.1012,   0.0096,   0.0025,  -0.0173
1493101423.0238480568, 1493101423.0262629986,  -0.0221,  -0.0707,   0.1012,   0.0096,   0.0025,  -0.0173
1493101423.0268709660, 1493101423.0292971134,  -0.0221,  -0.0707,   0.1012,   0.0096,   0.0025,  -0.0173
1493101423.0299010277, 1493101423.0323100090,  -0.0221,  -0.0707,   0.1012,   0.0108,   0.0020,  -0.0179
1493101423.0329089165, 1493101423.0352089405,  -0.0221,  -0.0707,   0.1012,   0.0108,   0.0020,  -0.0179
1493101423.0358059406, 1493101423.0381100178,  -0.0221,  -0.0707,   0.1012,   0.0108,   0.0020,  -0.0179
1493101423.0387101173, 1493101423.0411260128,  -0.0221,  -0.0707,   0.1012,   0.0108,   0.0020,  -0.0177
1493101423.0417349339, 1493101423.0440409184,  -0.0211,  -0.0702,   0.1000,   0.0107,   0.0029,  -0.0177
1493101423.0446400642, 1493101423.0469379425,  -0.0211,  -0.0702,   0.1000,   0.0107,   0.0029,  -0.0177
1493101423.0475370884, 1493101423.0498280525,  -0.0211,  -0.0702,   0.1000,   0.0107,   0.0029,  -0.0177
1493101423.0504260063, 1493101423.0528099537,  -0.0211,  -0.0702,   0.1000,   0.0083,   0.0038,  -0.0175
1493101423.0534090996, 1493101423.0557069778,  -0.0211,  -0.0702,   0.1000,   0.0083,   0.0038,  -0.0175
1493101423.0563049316, 1493101423.0585958958,  -0.0211,  -0.0702,   0.1000,   0.0083,   0.0038,  -0.0175
1493101423.0591940880, 1493101423.0616319180,  -0.0211,  -0.0702,   0.1000,   0.0083,   0.0038,  -0.0171
1493101423.0622310638, 1493101423.0645329952,  -0.0211,  -0.0704,   0.1007,   0.0054,   0.0038,  -0.0171
1493101423.0651299953, 1493101423.0674309731,  -0.0211,  -0.0704,   0.1007,   0.0054,   0.0038,  -0.0171
1493101423.0680301189, 1493101423.0703289509,  -0.0211,  -0.0704,   0.1007,   0.0054,   0.0038,  -0.0171
1493101423.0709569454, 1493101423.0733799934,  -0.0211,  -0.0704,   0.1007,   0.0032,   0.0049,  -0.0163
1493101423.0739850998, 1493101423.0764079094,  -0.0211,  -0.0704,   0.1007,   0.0032,   0.0049,  -0.0163
1493101423.0770149231, 1493101423.0794351101,  -0.0211,  -0.0704,   0.1007,   0.0032,   0.0049,  -0.0163
1493101423.0800390244, 1493101423.0824680328,  -0.0211,  -0.0704,   0.0999,   0.0032,   0.0050,  -0.0164
1493101423.0830750465, 1493101423.0854930878,  -0.0217,  -0.0711,   0.0999,   0.0022,   0.0050,  -0.0164
1493101423.0860989094, 1493101423.0885250568,  -0.0217,  -0.0711,   0.0999,   0.0022,   0.0050,  -0.0164
1493101423.0891311169, 1493101423.0915620327,  -0.0217,  -0.0711,   0.0999,   0.0022,   0.0050,  -0.0164
1493101423.0921659470, 1493101423.0945940018,  -0.0217,  -0.0711,   0.0999,   0.0021,   0.0048,  -0.0168
1493101423.0952000618, 1493101423.0976231098,  -0.0217,  -0.0711,   0.0999,   0.0021,   0.0048,  -0.0168
1493101423.0982279778, 1493101423.1006500721,  -0.0217,  -0.0711,   0.0999,   0.0021,   0.0048,  -0.0168
1493101423.1012620926, 1493101423.1035630703,  -0.0213,  -0.0706,   0.0993,   0.0037,   0.0042,  -0.0158
1493101423.1041610241, 1493101423.1064600945,  -0.0213,  -0.0706,   0.0993,   0.0037,   0.0042,  -0.0158
1493101423.1070590019, 1493101423.1093618870,  -0.0213,  -0.0706,   0.0993,   0.0037,   0.0042,  -0.0158
1493101423.1099588871, 1493101423.1123099327,  -0.0213,  -0.0706,   0.0993,   0.0037,   0.0042,  -0.0158
1493101423.1129078865, 1493101423.1152040958,  -0.0213,  -0.0706,   0.0993,   0.0053,   0.0035,  -0.0166
1493101423.1158030033, 1493101423.1182579994,  -0.0213,  -0.0706,   0.0993,   0.0053,   0.0035,  -0.0166
1493101423.1188549995, 1493101423.1214120388,  -0.0213,  -0.0706,   0.0993,   0.0053,   0.0035,  -0.0166
1493101423.1220219135, 1493101423.1244459152,  -0.0215,  -0.0708,   0.1013,   0.0083,   0.0026,  -0.0172
1493101423.1250510216, 1493101423.1274759769,  -0.0215,  -0.0708,   0.1013,   0.0083,   0.0026,  -0.0172
1493101423.1280829906, 1493101423.1305038929,  -0.0215,  -0.0708,   0.1013,   0.0083,   0.0026,  -0.0172
1493101423.1311180592, 1493101423.1335361004,  -0.0215,  -0.0708,   0.1013,   0.0083,   0.0026,  -0.0176
1493101423.1341419220, 1493101423.1365630627,  -0.0215,  -0.0708,   0.1013,   0.0107,   0.0027,  -0.0176
1493101423.1371660233, 1493101423.1395890713,  -0.0215,  -0.0708,   0.1013,   0.0107,   0.0027,  -0.0176
1493101423.1401960850, 1493101423.1426301003,  -0.0216,  -0.0706,   0.1006,   0.0107,   0.0027,  -0.0176
1493101423.1432330608, 1493101423.1456580162,  -0.0216,  -0.0706,   0.1006,   0.0097,   0.0027,  -0.0176
1493101423.1462650299, 1493101423.1486899853,  -0.0216,  -0.0706,   0.1006,   0.0097,   0.0027,  -0.0176
1493101423.1492938995, 1493101423.1517190933,  -0.0216,  -0.0706,   0.1006,   0.0097,   0.0027,  -0.0176
1493101423.1523189545, 1493101423.1546170712,  -0.0216,  -0.0706,   0.1006,   0.0097,   0.0030,  -0.0167
1493101423.1552131176, 1493101423.1575191021,  -0.0216,  -0.0706,   0.1006,   0.0089,   0.0030,  -0.0167
1493101423.1581170559, 1493101423.1604170799,  -0.0216,  -0.0706,   0.1006,   0.0089,   0.0030,  -0.0167
1493101423.1610169411, 1493101423.1633241177,  -0.0212,  -0.0705,   0.1005,   0.0089,   0.0030,  -0.0167
1493101423.1639211178, 1493101423.1662230492,  -0.0212,  -0.0705,   0.1005,   0.0080,   0.0030,  -0.0171
1493101423.1668210030, 1493101423.1691210270,  -0.0212,  -0.0705,   0.1005,   0.0080,   0.0030,  -0.0171
1493101423.1697180271, 1493101423.1720650196,  -0.0212,  -0.0705,   0.1005,   0.0080,   0.0030,  -0.0171
1493101423.1726629734, 1493101423.1749649048,  -0.0212,  -0.0705,   0.1005,   0.0080,   0.0034,  -0.0163
1493101423.1755650043, 1493101423.1778669357,  -0.0212,  -0.0705,   0.1005,   0.0060,   0.0034,  -0.0163
1493101423.1784639359, 1493101423.1807699203,  -0.0212,  -0.0705,   0.1005,   0.0060,   0.0034,  -0.0163
1493101423.1813759804, 1493101423.1838030815,  -0.0216,  -0.0706,   0.1005,   0.0060,   0.0034,  -0.0163
1493101423.1844079494, 1493101423.1868319511,  -0.0216,  -0.0706,   0.1005,   0.0038,   0.0034,  -0.0161
1493101423.1874380112, 1493101423.1898589134,  -0.0216,  -0.0706,   0.1005,   0.0038,   0.0034,  -0.0161
1493101423.1904640198, 1493101423.1928880215,  -0.0216,  -0.0706,   0.1005,   0.0038,   0.0034,  -0.0161
1493101423.1934928894, 1493101423.1959118843,  -0.0216,  -0.0706,   0.1005,   0.0038,   0.0039,  -0.0163
1493101423.1965169907, 1493101423.1989419460,  -0.0216,  -0.0706,   0.1005,   0.0034,   0.0039,  -0.0163
1493101423.1995480061, 1493101423.2019839287,  -0.0216,  -0.0705,   0.1005,   0.0034,   0.0039,  -0.0163
1493101423.2025899887, 1493101423.2050149441,  -0.0216,  -0.0705,   0.1005,   0.0034,   0.0039,  -0.0163
1493101423.2056200504, 1493101423.2080459595,  -0.0216,  -0.0705,   0.1005,   0.0035,   0.0039,  -0.0162
1493101423.2086510658, 1493101423.2110700607,  -0.0216,  -0.0705,   0.1005,   0.0035,   0.0039,  -0.0162
1493101423.2116699219, 1493101423.2139680386,  -0.0216,  -0.0705,   0.1005,   0.0035,   0.0039,  -0.0162
1493101423.2145659924, 1493101423.2168750763,  -0.0216,  -0.0705,   0.1005,   0.0047,   0.0038,  -0.0167
1493101423.2174730301, 1493101423.2197759151,  -0.0216,  -0.0705,   0.1005,   0.0047,   0.0038,  -0.0167
1493101423.2203741074, 1493101423.2227909565,  -0.0212,  -0.0706,   0.1000,   0.0047,   0.0038,  -0.0167
1493101423.2233960629, 1493101423.2258229256,  -0.0212,  -0.0706,   0.1000,   0.0047,   0.0038,  -0.0167
1493101423.2264289856, 1493101423.2288529873,  -0.0212,  -0.0706,   0.1000,   0.0058,   0.0031,  -0.0171
1493101423.2294580936, 1493101423.2318899632,  -0.0212,  -0.0706,   0.1000,   0.0058,   0.0031,  -0.0171
1493101423.2324950695, 1493101423.2349269390,  -0.0212,  -0.0706,   0.1000,   0.0058,   0.0031,  -0.0171
1493101423.2355320454, 1493101423.2380700111,  -0.0212,  -0.0706,   0.1000,   0.0073,   0.0027,  -0.0168
1493101423.2386760712, 1493101423.2415249348,  -0.0212,  -0.0706,   0.1003,   0.0073,   0.0027,  -0.0168
1493101423.2421309948, 1493101423.2445619106,  -0.0214,  -0.0709,   0.1003,   0.0073,   0.0027,  -0.0168
1493101423.2451670170, 1493101423.2475869656,  -0.0214,  -0.0709,   0.1003,   0.0085,   0.0034,  -0.0167
1493101423.2481920719, 1493101423.2506189346,  -0.0214,  -0.0709,   0.1003,   0.0085,   0.0034,  -0.0167
1493101423.2512309551, 1493101423.2536520958,  -0.0214,  -0.0709,   0.1003,   0.0085,   0.0034,  -0.0167
1493101423.2542569637, 1493101423.2566869259,  -0.0214,  -0.0709,   0.1003,   0.0085,   0.0034,  -0.0167
1493101423.2572929859, 1493101423.2597169876,  -0.0214,  -0.0709,   0.1003,   0.0075,   0.0028,  -0.0171
1493101423.2603220940, 1493101423.2626640797,  -0.0219,  -0.0709,   0.1004,   0.0075,   0.0028,  -0.0171
1493101423.2632639408, 1493101423.2655670643,  -0.0219,  -0.0709,   0.1004,   0.0075,   0.0028,  -0.0171
1493101423.2661640644, 1493101423.2684628963,  -0.0219,  -0.0709,   0.1004,   0.0067,   0.0030,  -0.0172
1493101423.2690610886, 1493101423.2713770866,  -0.0219,  -0.0709,   0.1004,   0.0067,   0.0030,  -0.0172
1493101423.2719769478, 1493101423.2742850780,  -0.0219,  -0.0709,   0.1004,   0.0067,   0.0030,  -0.0172
1493101423.2748820782, 1493101423.2771821022,  -0.0219,  -0.0709,   0.1004,   0.0067,   0.0030,  -0.0172
1493101423.2777810097, 1493101423.2800879478,  -0.0219,  -0.0709,   0.1004,   0.0058,   0.0037,  -0.0167
1493101423.2806859016, 1493101423.2830379009,  -0.0215,  -0.0704,   0.0997,   0.0058,   0.0037,  -0.0167
1493101423.2836349010, 1493101423.2859361172,  -0.0215,  -0.0704,   0.0997,   0.0058,   0.0037,  -0.0167
1493101423.2865359783, 1493101423.2888400555,  -0.0215,  -0.0704,   0.0997,   0.0064,   0.0037,  -0.0162
1493101423.2894370556, 1493101423.2918570042,  -0.0215,  -0.0704,   0.0997,   0.0064,   0.0037,  -0.0162
1493101423.2924571037, 1493101423.2947568893,  -0.0215,  -0.0704,   0.0997,   0.0064,   0.0037,  -0.0162
1493101423.2953550816, 1493101423.2976610661,  -0.0215,  -0.0704,   0.0997,   0.0064,   0.0037,  -0.0162
1493101423.2982599735, 1493101423.3005599976,  -0.0215,  -0.0707,   0.1009,   0.0054,   0.0042,  -0.0168
1493101423.3011660576, 1493101423.3035979271,  -0.0214,  -0.0707,   0.1009,   0.0054,   0.0042,  -0.0168
1493101423.3042020798, 1493101423.3066279888,  -0.0214,  -0.0707,   0.1009,   0.0054,   0.0042,  -0.0168
1493101423.3072340488, 1493101423.3096621037,  -0.0214,  -0.0707,   0.1009,   0.0049,   0.0044,  -0.0167
1493101423.3102660179, 1493101423.3126161098,  -0.0214,  -0.0707,   0.1009,   0.0049,   0.0044,  -0.0167
1493101423.3132150173, 1493101423.3155159950,  -0.0214,  -0.0707,   0.1009,   0.0049,   0.0044,  -0.0167
1493101423.3161129951, 1493101423.3184130192,  -0.0214,  -0.0707,   0.1009,   0.0049,   0.0044,  -0.0167
1493101423.3190109730, 1493101423.3213799000,  -0.0215,  -0.0711,   0.1003,   0.0060,   0.0034,  -0.0162
1493101423.3219859600, 1493101423.3244149685,  -0.0215,  -0.0711,   0.1003,   0.0060,   0.0034,  -0.0162
1493101423.3250179291, 1493101423.3274478912,  -0.0215,  -0.0711,   0.1003,   0.0060,   0.0034,  -0.0162
1493101423.3280549049, 1493101423.3304729462,  -0.0215,  -0.0711,   0.1003,   0.0053,   0.0035,  -0.0164
1493101423.3310880661, 1493101423.3335120678,  -0.0215,  -0.0711,   0.1003,   0.0053,   0.0035,  -0.0164
1493101423.3341178894, 1493101423.3365430832,  -0.0215,  -0.0711,   0.1003,   0.0053,   0.0035,  -0.0164
1493101423.3371469975, 1493101423.3395700455,  -0.0215,  -0.0711,   0.1003,   0.0053,   0.0035,  -0.0166
1493101423.3401761055, 1493101423.3426120281,  -0.0213,  -0.0708,   0.0995,   0.0050,   0.0041,  -0.0166
1493101423.3432168961, 1493101423.3456459045,  -0.0213,  -0.0708,   0.0995,   0.0050,   0.0041,  -0.0166
1493101423.3462510109, 1493101423.3486750126,  -0.0213,  -0.0708,   0.0995,   0.0050,   0.0041,  -0.0166
1493101423.3492789268, 1493101423.3517560959,  -0.0213,  -0.0708,   0.0995,   0.0058,   0.0037,  -0.0172
1493101423.3523619175, 1493101423.3547859192,  -0.0213,  -0.0708,   0.0995,   0.0058,   0.0037,  -0.0172
1493101423.3553891182, 1493101423.3579270840,  -0.0213,  -0.0708,   0.0995,   0.0058,   0.0037,  -0.0172
1493101423.3585329056, 1493101423.3609519005,  -0.0208,  -0.0704,   0.1004,   0.0069,   0.0038,  -0.0170
1493101423.3616180420, 1493101423.3639431000,  -0.0208,  -0.0704,   0.1004,   0.0069,   0.0038,  -0.0170
1493101423.3645420074, 1493101423.3668489456,  -0.0208,  -0.0704,   0.1004,   0.0069,   0.0038,  -0.0170
1493101423.3674468994, 1493101423.3697459698,  -0.0208,  -0.0704,   0.1004,   0.0069,   0.0038,  -0.0170
1493101423.3703439236, 1493101423.3727788925,  -0.0208,  -0.0704,   0.1004,   0.0067,   0.0034,  -0.0168
1493101423.3733870983, 1493101423.3758161068,  -0.0208,  -0.0704,   0.1004,   0.0067,   0.0034,  -0.0168
1493101423.3764200211, 1493101423.3788740635,  -0.0208,  -0.0704,   0.1004,   0.0067,   0.0034,  -0.0168
1493101423.3794810772, 1493101423.3819479942,  -0.0222,  -0.0708,   0.1012,   0.0071,   0.0035,  -0.0174
1493101423.3825540543, 1493101423.3849759102,  -0.0222,  -0.0708,   0.1012,   0.0071,   0.0035,  -0.0174
1493101423.3855819702, 1493101423.3880009651,  -0.0222,  -0.0708,   0.1012,   0.0071,   0.0035,  -0.0174
1493101423.3886070251, 1493101423.3910450935,  -0.0222,  -0.0708,   0.1012,   0.0071,   0.0035,  -0.0171
1493101423.3916430473, 1493101423.3939440250,  -0.0222,  -0.0708,   0.1012,   0.0067,   0.0035,  -0.0171
1493101423.3945410252, 1493101423.3968420029,  -0.0222,  -0.0708,   0.1012,   0.0067,   0.0035,  -0.0171
1493101423.3974409103, 1493101423.3997490406,  -0.0222,  -0.0711,   0.1009,   0.0067,   0.0035,  -0.0171
1493101423.4003460407, 1493101423.4026920795,  -0.0215,  -0.0711,   0.1009,   0.0058,   0.0030,  -0.0168
1493101423.4032890797, 1493101423.4055879116,  -0.0215,  -0.0711,   0.1009,   0.0058,   0.0030,  -0.0168
1493101423.4061870575, 1493101423.4084880352,  -0.0215,  -0.0711,   0.1009,   0.0058,   0.0030,  -0.0168
1493101423.4090850353, 1493101423.4115009308,  -0.0215,  -0.0711,   0.1009,   0.0058,   0.0030,  -0.0171
1493101423.4121000767, 1493101423.4144060612,  -0.0215,  -0.0711,   0.1009,   0.0052,   0.0038,  -0.0171
1493101423.4150040150, 1493101423.4173319340,  -0.0215,  -0.0711,   0.1009,   0.0052,   0.0038,  -0.0171
1493101423.4179310799, 1493101423.4202320576,  -0.0212,  -0.0705,   0.1005,   0.0052,   0.0038,  -0.0171
1493101423.4208309650, 1493101423.4233748913,  -0.0212,  -0.0705,   0.1005,   0.0054,   0.0038,  -0.0170
1493101423.4239809513, 1493101423.4264039993,  -0.0212,  -0.0705,   0.1005,   0.0054,   0.0038,  -0.0170
1493101423.4270100594, 1493101423.4294309616,  -0.0212,  -0.0705,   0.1005,   0.0054,   0.0038,  -0.0170
1493101423.4300370216, 1493101423.4324638844,  -0.0212,  -0.0705,   0.1005,   0.0054,   0.0037,  -0.0179
1493101423.4330699444, 1493101423.4354870319,  -0.0212,  -0.0705,   0.1005,   0.0046,   0.0037,  -0.0179
1493101423.4360930920, 1493101423.4385099411,  -0.0212,  -0.0705,   0.1005,   0.0046,   0.0037,  -0.0179
1493101423.4391160011, 1493101423.4415409565,  -0.0217,  -0.0700,   0.1008,   0.0046,   0.0037,  -0.0179
1493101423.4421470165, 1493101423.4445710182,  -0.0217,  -0.0700,   0.1008,   0.0059,   0.0038,  -0.0165
1493101423.4451770782, 1493101423.4475998878,  -0.0217,  -0.0700,   0.1008,   0.0059,   0.0038,  -0.0165
1493101423.4482049942, 1493101423.4506220818,  -0.0217,  -0.0700,   0.1008,   0.0059,   0.0038,  -0.0165
1493101423.4512319565, 1493101423.4535329342,  -0.0217,  -0.0700,   0.1008,   0.0053,   0.0037,  -0.0167
1493101423.4541308880, 1493101423.4564259052,  -0.0217,  -0.0700,   0.1008,   0.0053,   0.0037,  -0.0167
1493101423.4570250511, 1493101423.4593179226,  -0.0217,  -0.0706,   0.1006,   0.0053,   0.0037,  -0.0167
1493101423.4599149227, 1493101423.4622189999,  -0.0215,  -0.0706,   0.1006,   0.0053,   0.0037,  -0.0167
1493101423.4628190994, 1493101423.4651079178,  -0.0215,  -0.0706,   0.1006,   0.0059,   0.0038,  -0.0166
1493101423.4657080173, 1493101423.4680080414,  -0.0215,  -0.0706,   0.1006,   0.0059,   0.0038,  -0.0166
1493101423.4686059952, 1493101423.4709548950,  -0.0215,  -0.0706,   0.1006,   0.0059,   0.0038,  -0.0166
1493101423.4715640545, 1493101423.4739511013,  -0.0215,  -0.0706,   0.1006,   0.0073,   0.0038,  -0.0172
1493101423.4745531082, 1493101423.4769380093,  -0.0215,  -0.0706,   0.1006,   0.0073,   0.0038,  -0.0172
1493101423.4775450230, 1493101423.4799621105,  -0.0216,  -0.0707,   0.1014,   0.0073,   0.0038,  -0.0172
1493101423.4805660248, 1493101423.4829890728,  -0.0216,  -0.0707,   0.1014,   0.0073,   0.0038,  -0.0172
1493101423.4835939407, 1493101423.4860079288,  -0.0216,  -0.0707,   0.1014,   0.0069,   0.0031,  -0.0171
1493101423.4866099358, 1493101423.4891300201,  -0.0216,  -0.0707,   0.1014,   0.0069,   0.0031,  -0.0171
1493101423.4897360802, 1493101423.4925079346,  -0.0216,  -0.0707,   0.1014,   0.0069,   0.0031,  -0.0171
1493101423.4931120872, 1493101423.4955270290,  -0.0216,  -0.0707,   0.1014,   0.0072,   0.0034,  -0.0167
1493101423.4961309433, 1493101423.4985349178,  -0.0216,  -0.0707,   0.1003,   0.0072,   0.0034,  -0.0167
1493101423.4991390705, 1493101423.5015640259,  -0.0211,  -0.0705,   0.1003,   0.0072,   0.0034,  -0.0167
1493101423.5021688938, 1493101423.5045709610,  -0.0211,  -0.0705,   0.1003,   0.0072,   0.0035,  -0.0169
1493101423.5051751137, 1493101423.5075769424,  -0.0211,  -0.0705,   0.1003,   0.0057,   0.0035,  -0.0169
1493101423.5081820488, 1493101423.5105929375,  -0.0211,  -0.0705,   0.1003,   0.0057,   0.0035,  -0.0169
1493101423.5111999512, 1493101423.5136110783,  -0.0211,  -0.0705,   0.1003,   0.0057,   0.0035,  -0.0169
1493101423.5142159462, 1493101423.5166299343,  -0.0211,  -0.0705,   0.1003,   0.0051,   0.0038,  -0.0167
1493101423.5172319412, 1493101423.5196349621,  -0.0212,  -0.0697,   0.1006,   0.0051,   0.0038,  -0.0167
1493101423.5202391148, 1493101423.5225811005,  -0.0212,  -0.0697,   0.1006,   0.0051,   0.0038,  -0.0167
1493101423.5231781006, 1493101423.5254819393,  -0.0212,  -0.0697,   0.1006,   0.0049,   0.0041,  -0.0171
1493101423.5260798931, 1493101423.5283770561,  -0.0212,  -0.0697,   0.1006,   0.0049,   0.0041,  -0.0171
1493101423.5289759636, 1493101423.5313940048,  -0.0212,  -0.0697,   0.1006,   0.0049,   0.0041,  -0.0171
1493101423.5319919586, 1493101423.5342919827,  -0.0212,  -0.0697,   0.1006,   0.0049,   0.0041,  -0.0171
1493101423.5348899364, 1493101423.5371890068,  -0.0212,  -0.0697,   0.1006,   0.0056,   0.0028,  -0.0170
1493101423.5377860069, 1493101423.5400810242,  -0.0214,  -0.0705,   0.1017,   0.0056,   0.0028,  -0.0170
1493101423.5406789780, 1493101423.5430181026,  -0.0214,  -0.0705,   0.1017,   0.0056,   0.0028,  -0.0170
1493101423.5436179638, 1493101423.5459198952,  -0.0214,  -0.0705,   0.1017,   0.0070,   0.0039,  -0.0175
1493101423.5465180874, 1493101423.5488278866,  -0.0214,  -0.0705,   0.1017,   0.0070,   0.0039,  -0.0175
1493101423.5494260788, 1493101423.5518879890,  -0.0214,  -0.0705,   0.1017,   0.0070,   0.0039,  -0.0175
1493101423.5524919033, 1493101423.5549039841,  -0.0214,  -0.0705,   0.1017,   0.0070,   0.0039,  -0.0175
1493101423.5555090904, 1493101423.5579218864,  -0.0214,  -0.0705,   0.1003,   0.0070,   0.0037,  -0.0173
1493101423.5585269928, 1493101423.5609459877,  -0.0214,  -0.0708,   0.1003,   0.0070,   0.0037,  -0.0173
1493101423.5615520477, 1493101423.5639629364,  -0.0214,  -0.0708,   0.1003,   0.0070,   0.0037,  -0.0173
1493101423.5645680428, 1493101423.5669779778,  -0.0214,  -0.0708,   0.1003,   0.0060,   0.0030,  -0.0169
1493101423.5675830841, 1493101423.5699899197,  -0.0214,  -0.0708,   0.1003,   0.0060,   0.0030,  -0.0169
1493101423.5705950260, 1493101423.5730040073,  -0.0214,  -0.0708,   0.1003,   0.0060,   0.0030,  -0.0169
1493101423.5736060143, 1493101423.5759980679,  -0.0214,  -0.0708,   0.1003,   0.0060,   0.0030,  -0.0171
1493101423.5766019821, 1493101423.5791089535,  -0.0211,  -0.0705,   0.0998,   0.0062,   0.0047,  -0.0171
1493101423.5797140598, 1493101423.5821509361,  -0.0211,  -0.0705,   0.0998,   0.0062,   0.0047,  -0.0171
1493101423.5827579498, 1493101423.5851769447,  -0.0211,  -0.0705,   0.0998,   0.0062,   0.0047,  -0.0171
1493101423.5857830048, 1493101423.5882060528,  -0.0211,  -0.0705,   0.0998,   0.0053,   0.0036,  -0.0168
1493101423.5888130665, 1493101423.5912361145,  -0.0211,  -0.0705,   0.0998,   0.0053,   0.0036,  -0.0168
1493101423.5918350220, 1493101423.5941350460,  -0.0211,  -0.0705,   0.0998,   0.0053,   0.0036,  -0.0168
1493101423.5947339535, 1493101423.5970358849,  -0.0211,  -0.0705,   0.0998,   0.0053,   0.0032,  -0.0172
1493101423.5976340771, 1493101423.5999300480,  -0.0210,  -0.0706,   0.0995,   0.0049,   0.0032,  -0.0172
1493101423.6005280018, 1493101423.6028580666,  -0.0210,  -0.0706,   0.0995,   0.0049,   0.0032,  -0.0172
1493101423.6034560204, 1493101423.6057589054,  -0.0210,  -0.0706,   0.0995,   0.0049,   0.0032,  -0.0172
1493101423.6063570976, 1493101423.6087949276,  -0.0210,  -0.0706,   0.0995,   0.0060,   0.0038,  -0.0172
1493101423.6093959808, 1493101423.6121730804,  -0.0210,  -0.0706,   0.0995,   0.0060,   0.0038,  -0.0172
1493101423.6127789021, 1493101423.6152050495,  -0.0210,  -0.0706,   0.0995,   0.0060,   0.0038,  -0.0172
1493101423.6158099174, 1493101423.6182808876,  -0.0213,  -0.0703,   0.1003,   0.0067,   0.0031,  -0.0172
1493101423.6188879013, 1493101423.6213529110,  -0.0213,  -0.0703,   0.1003,   0.0067,   0.0031,  -0.0172
1493101423.6219589710, 1493101423.6243810654,  -0.0213,  -0.0703,   0.1003,   0.0067,   0.0031,  -0.0172
1493101423.6249868870, 1493101423.6274058819,  -0.0213,  -0.0703,   0.1003,   0.0067,   0.0031,  -0.0174
1493101423.6280109882, 1493101423.6304330826,  -0.0213,  -0.0703,   0.1003,   0.0059,   0.0029,  -0.0174
1493101423.6310501099, 1493101423.6334760189,  -0.0213,  -0.0703,   0.1003,   0.0059,   0.0029,  -0.0174
1493101423.6340808868, 1493101423.6365039349,  -0.0213,  -0.0703,   0.1003,   0.0059,   0.0029,  -0.0174
1493101423.6371090412, 1493101423.6395349503,  -0.0212,  -0.0704,   0.1001,   0.0058,   0.0037,  -0.0173
1493101423.6401400566, 1493101423.6424939632,  -0.0212,  -0.0704,   0.1001,   0.0058,   0.0037,  -0.0173
1493101423.6430919170, 1493101423.6453909874,  -0.0212,  -0.0704,   0.1001,   0.0058,   0.0037,  -0.0173
1493101423.6459898949, 1493101423.6482899189,  -0.0212,  -0.0704,   0.1001,   0.0058,   0.0035,  -0.0169
1493101423.6488869190, 1493101423.6511950493,  -0.0212,  -0.0704,   0.1001,   0.0053,   0.0035,  -0.0169
1493101423.6517930031, 1493101423.6540880203,  -0.0212,  -0.0704,   0.1001,   0.0053,   0.0035,  -0.0169
1493101423.6546878815, 1493101423.6569859982,  -0.0212,  -0.0704,   0.1013,   0.0053,   0.0035,  -0.0169
1493101423.6575839520, 1493101423.6598858833,  -0.0223,  -0.0709,   0.1013,   0.0052,   0.0036,  -0.0170
1493101423.6604840755, 1493101423.6627869606,  -0.0223,  -0.0709,   0.1013,   0.0052,   0.0036,  -0.0170
1493101423.6633839607, 1493101423.6656839848,  -0.0223,  -0.0709,   0.1013,   0.0052,   0.0036,  -0.0170
1493101423.6662828922, 1493101423.6685829163,  -0.0223,  -0.0709,   0.1013,   0.0052,   0.0036,  -0.0172
1493101423.6691820621, 1493101423.6716489792,  -0.0223,  -0.0709,   0.1013,   0.0062,   0.0030,  -0.0172
1493101423.6722469330, 1493101423.6745479107,  -0.0223,  -0.0709,   0.1013,   0.0062,   0.0030,  -0.0172
1493101423.6751480103, 1493101423.6774508953,  -0.0223,  -0.0699,   0.1001,   0.0062,   0.0030,  -0.0172
1493101423.6780490875, 1493101423.6803579330,  -0.0208,  -0.0699,   0.1001,   0.0079,   0.0042,  -0.0173
1493101423.6810560226, 1493101423.6834828854,  -0.0208,  -0.0699,   0.1001,   0.0079,   0.0042,  -0.0173
1493101423.6840870380, 1493101423.6865110397,  -0.0208,  -0.0699,   0.1001,   0.0079,   0.0042,  -0.0173
1493101423.6871170998, 1493101423.6895360947,  -0.0208,  -0.0699,   0.1001,   0.0079,   0.0037,  -0.0170
1493101423.6901400089, 1493101423.6925749779,  -0.0208,  -0.0699,   0.1001,   0.0061,   0.0037,  -0.0170
1493101423.6931810379, 1493101423.6956050396,  -0.0208,  -0.0699,   0.1001,   0.0061,   0.0037,  -0.0170
1493101423.6962099075, 1493101423.6986339092,  -0.0208,  -0.0713,   0.1003,   0.0061,   0.0037,  -0.0170
1493101423.6992390156, 1493101423.7016611099,  -0.0208,  -0.0713,   0.1003,   0.0047,   0.0033,  -0.0173
1493101423.7022650242, 1493101423.7046909332,  -0.0208,  -0.0713,   0.1003,   0.0047,   0.0033,  -0.0173
1493101423.7052960396, 1493101423.7077209949,  -0.0208,  -0.0713,   0.1003,   0.0047,   0.0033,  -0.0173
1493101423.7083261013, 1493101423.7107460499,  -0.0208,  -0.0713,   0.1003,   0.0076,   0.0053,  -0.0173
1493101423.7113630772, 1493101423.7136609554,  -0.0208,  -0.0713,   0.1003,   0.0076,   0.0053,  -0.0173
1493101423.7142601013, 1493101423.7165639400,  -0.0208,  -0.0635,   0.1009,   0.0076,   0.0053,  -0.0173
1493101423.7171618938, 1493101423.7194590569,  -0.0217,  -0.0701,   0.1009,   0.0076,   0.0053,  -0.0173
1493101423.7200579643, 1493101423.7224459648,  -0.0217,  -0.0701,   0.1009,   0.0042,   0.0039,  -0.0172
1493101423.7230520248, 1493101423.7254700661,  -0.0217,  -0.0701,   0.1009,   0.0042,   0.0039,  -0.0172
1493101423.7260758877, 1493101423.7284939289,  -0.0217,  -0.0701,   0.1009,   0.0042,   0.0039,  -0.0172
1493101423.7290968895, 1493101423.7315599918,  -0.0217,  -0.0701,   0.1009,   0.0023,   0.0031,  -0.0167
1493101423.7321679592, 1493101423.7345890999,  -0.0217,  -0.0701,   0.1009,   0.0023,   0.0031,  -0.0167
1493101423.7351920605, 1493101423.7376399040,  -0.0216,  -0.0705,   0.1012,   0.0023,   0.0031,  -0.0167
1493101423.7382459641, 1493101423.7406580448,  -0.0216,  -0.0705,   0.1012,   0.0023,   0.0031,  -0.0167
1493101423.7416369915, 1493101423.7440629005,  -0.0216,  -0.0705,   0.1012,   0.0044,   0.0046,  -0.0167
1493101423.7446689606, 1493101423.7470910549,  -0.0216,  -0.0705,   0.1012,   0.0044,   0.0046,  -0.0167
1493101423.7476949692, 1493101423.7501161098,  -0.0216,  -0.0705,   0.1012,   0.0044,   0.0046,  -0.0167
1493101423.7507219315, 1493101423.7531540394,  -0.0216,  -0.0705,   0.1012,   0.0043,   0.0035,  -0.0168
1493101423.7537589073, 1493101423.7561740875,  -0.0216,  -0.0705,   0.1002,   0.0043,   0.0035,  -0.0168
1493101423.7567789555, 1493101423.7592010498,  -0.0219,  -0.0713,   0.1002,   0.0043,   0.0035,  -0.0168
1493101423.7598049641, 1493101423.7621819973,  -0.0219,  -0.0713,   0.1002,   0.0067,   0.0032,  -0.0169
1493101423.7627809048, 1493101423.7650780678,  -0.0219,  -0.0713,   0.1002,   0.0067,   0.0032,  -0.0169
1493101423.7656750679, 1493101423.7679719925,  -0.0219,  -0.0713,   0.1002,   0.0067,   0.0032,  -0.0169
1493101423.7685709000, 1493101423.7708730698,  -0.0219,  -0.0713,   0.1002,   0.0067,   0.0032,  -0.0169
1493101423.7714729309, 1493101423.7737770081,  -0.0219,  -0.0713,   0.1002,   0.0089,   0.0041,  -0.0168
1493101423.7743759155, 1493101423.7766730785,  -0.0220,  -0.0708,   0.1010,   0.0089,   0.0041,  -0.0168
1493101423.7772710323, 1493101423.7796049118,  -0.0220,  -0.0708,   0.1010,   0.0089,   0.0041,  -0.0168
1493101423.7802031040, 1493101423.7825350761,  -0.0220,  -0.0708,   0.1010,   0.0075,   0.0028,  -0.0168
1493101423.7831339836, 1493101423.7854321003,  -0.0220,  -0.0708,   0.1010,   0.0075,   0.0028,  -0.0168
1493101423.7860300541, 1493101423.7883288860,  -0.0220,  -0.0708,   0.1010,   0.0075,   0.0028,  -0.0168
1493101423.7889258862, 1493101423.7913250923,  -0.0220,  -0.0708,   0.1010,   0.0075,   0.0028,  -0.0168
1493101423.7919239998, 1493101423.7942318916,  -0.0220,  -0.0708,   0.1010,   0.0076,   0.0036,  -0.0169
1493101423.7948310375, 1493101423.7971320152,  -0.0221,  -0.0705,   0.1019,   0.0076,   0.0036,  -0.0169
1493101423.7977280617, 1493101423.8000280857,  -0.0221,  -0.0705,   0.1019,   0.0076,   0.0036,  -0.0169
1493101423.8006269932, 1493101423.8030619621,  -0.0221,  -0.0705,   0.1019,   0.0074,   0.0040,  -0.0169
1493101423.8036599159, 1493101423.8059589863,  -0.0221,  -0.0705,   0.1019,   0.0074,   0.0040,  -0.0169
1493101423.8065569401, 1493101423.8088569641,  -0.0221,  -0.0705,   0.1019,   0.0074,   0.0040,  -0.0169
1493101423.8094561100, 1493101423.8118081093,  -0.0221,  -0.0705,   0.1019,   0.0074,   0.0040,  -0.0169
1493101423.8124129772, 1493101423.8148350716,  -0.0221,  -0.0705,   0.1019,   0.0045,   0.0046,  -0.0168
1493101423.8154430389, 1493101423.8178639412,  -0.0222,  -0.0709,   0.1014,   0.0045,   0.0046,  -0.0168
1493101423.8184690475, 1493101423.8208909035,  -0.0222,  -0.0709,   0.1014,   0.0045,   0.0046,  -0.0168
1493101423.8215489388, 1493101423.8239729404,  -0.0222,  -0.0709,   0.1014,   0.0018,   0.0031,  -0.0170
1493101423.8245770931, 1493101423.8269960880,  -0.0222,  -0.0709,   0.1014,   0.0018,   0.0031,  -0.0170
1493101423.8276019096, 1493101423.8300199509,  -0.0222,  -0.0709,   0.1014,   0.0018,   0.0031,  -0.0170
1493101423.8306260109, 1493101423.8329548836,  -0.0222,  -0.0709,   0.1014,   0.0018,   0.0031,  -0.0170
1493101423.8335540295, 1493101423.8358509541,  -0.0222,  -0.0696,   0.0999,   0.0043,   0.0043,  -0.0160
1493101423.8364489079, 1493101423.8387470245,  -0.0208,  -0.0696,   0.0999,   0.0043,   0.0043,  -0.0160
1493101423.8393440247, 1493101423.8417139053,  -0.0208,  -0.0696,   0.0999,   0.0043,   0.0043,  -0.0160
1493101423.8423199654, 1493101423.8447461128,  -0.0208,  -0.0696,   0.0999,   0.0042,   0.0023,  -0.0159
1493101423.8453490734, 1493101423.8477799892,  -0.0208,  -0.0696,   0.0999,   0.0042,   0.0023,  -0.0159
1493101423.8483850956, 1493101423.8508090973,  -0.0208,  -0.0696,   0.0999,   0.0042,   0.0023,  -0.0159
1493101423.8514060974, 1493101423.8537039757,  -0.0208,  -0.0696,   0.0999,   0.0042,   0.0023,  -0.0164
1493101423.8543040752, 1493101423.8566091061,  -0.0212,  -0.0707,   0.0986,   0.0031,  -0.0023,  -0.0164
1493101423.8572640419, 1493101423.8596448898,  -0.0212,  -0.0707,   0.0986,   0.0031,  -0.0023,  -0.0164
1493101423.8602459431, 1493101423.8629219532,  -0.0212,  -0.0707,   0.0986,   0.0031,  -0.0023,  -0.0164
1493101423.8635199070, 1493101423.8658120632,  -0.0212,  -0.0707,   0.0986,   0.0120,  -0.0024,  -0.0183
1493101423.8664109707, 1493101423.8687059879,  -0.0212,  -0.0707,   0.0986,   0.0120,  -0.0024,  -0.0183
1493101423.8693039417, 1493101423.8716659546,  -0.0212,  -0.0707,   0.0986,   0.0120,  -0.0024,  -0.0183
1493101423.8722710609, 1493101423.8746991158,  -0.0212,  -0.0707,   0.0986,   0.0120,  -0.0023,  -0.0191
1493101423.8753058910, 1493101423.8777279854,  -0.0211,  -0.0708,   0.0998,   0.0192,  -0.0023,  -0.0191
1493101423.8783318996, 1493101423.8807621002,  -0.0211,  -0.0708,   0.0998,   0.0192,  -0.0023,  -0.0191
1493101423.8813779354, 1493101423.8838040829,  -0.0211,  -0.0708,   0.0998,   0.0192,  -0.0023,  -0.0191
1493101423.8844089508, 1493101423.8868319988,  -0.0211,  -0.0708,   0.0998,   0.0228,  -0.0012,  -0.0187
1493101423.8874390125, 1493101423.8898599148,  -0.0211,  -0.0708,   0.0998,   0.0228,  -0.0012,  -0.0187
1493101423.8904650211, 1493101423.8927888870,  -0.0211,  -0.0708,   0.0998,   0.0228,  -0.0012,  -0.0187
1493101423.8933889866, 1493101423.8956909180,  -0.0211,  -0.0689,   0.1019,   0.0210,   0.0016,  -0.0187
1493101423.8962891102, 1493101423.8985879421,  -0.0211,  -0.0689,   0.1019,   0.0210,   0.0016,  -0.0187
1493101423.8991858959, 1493101423.9015359879,  -0.0211,  -0.0689,   0.1019,   0.0210,   0.0016,  -0.0187
1493101423.9021339417, 1493101423.9044399261,  -0.0211,  -0.0689,   0.1019,   0.0210,   0.0016,  -0.0187
1493101423.9050369263, 1493101423.9073390961,  -0.0211,  -0.0689,   0.1019,   0.0133,   0.0021,  -0.0184
1493101423.9079380035, 1493101423.9102439880,  -0.0211,  -0.0689,   0.1019,   0.0133,   0.0021,  -0.0184
1493101423.9108409882, 1493101423.9132380486,  -0.0211,  -0.0689,   0.1019,   0.0133,   0.0021,  -0.0184
1493101423.9138350487, 1493101423.9161400795,  -0.0211,  -0.0699,   0.1028,   0.0055,   0.0040,  -0.0168
1493101423.9167380333, 1493101423.9190399647,  -0.0211,  -0.0699,   0.1028,   0.0067,   0.0040,  -0.0168
1493101423.9196369648, 1493101423.9220941067,  -0.0211,  -0.0699,   0.1028,   0.0067,   0.0040,  -0.0168
1493101423.9226999283, 1493101423.9251201153,  -0.0211,  -0.0699,   0.1028,   0.0067,   0.0040,  -0.0168
1493101423.9257240295, 1493101423.9281499386,  -0.0211,  -0.0699,   0.1028,   0.0002,   0.0042,  -0.0157
1493101423.9287550449, 1493101423.9311859608,  -0.0211,  -0.0699,   0.1028,   0.0002,   0.0042,  -0.0157
1493101423.9317901134, 1493101423.9342200756,  -0.0211,  -0.0699,   0.1028,   0.0002,   0.0042,  -0.0157
1493101423.9348258972, 1493101423.9372498989,  -0.0217,  -0.0710,   0.1017,  -0.0037,   0.0031,  -0.0162
1493101423.9378550053, 1493101423.9402821064,  -0.0217,  -0.0710,   0.1017,  -0.0037,   0.0031,  -0.0162
1493101423.9408869743, 1493101423.9433538914,  -0.0217,  -0.0710,   0.1017,  -0.0037,   0.0031,  -0.0162
1493101423.9439599514, 1493101423.9463789463,  -0.0217,  -0.0710,   0.1017,  -0.0037,   0.0031,  -0.0161
1493101423.9469840527, 1493101423.9494080544,  -0.0217,  -0.0710,   0.1017,   0.0003,   0.0041,  -0.0161
1493101423.9500129223, 1493101423.9523789883,  -0.0217,  -0.0710,   0.1017,   0.0003,   0.0041,  -0.0161
1493101423.9529769421, 1493101423.9552760124,  -0.0214,  -0.0702,   0.0994,   0.0003,   0.0041,  -0.0161
1493101423.9558739662, 1493101423.9581809044,  -0.0214,  -0.0702,   0.0994,   0.0056,   0.0040,  -0.0164
1493101423.9587769508, 1493101423.9611411095,  -0.0214,  -0.0702,   0.0994,   0.0056,   0.0040,  -0.0164
1493101423.9617409706, 1493101423.9640359879,  -0.0214,  -0.0702,   0.0994,   0.0056,   0.0040,  -0.0164
1493101423.9646329880, 1493101423.9669320583,  -0.0214,  -0.0702,   0.0994,   0.0056,   0.0040,  -0.0168
1493101423.9675309658, 1493101423.9698300362,  -0.0214,  -0.0702,   0.0994,   0.0076,   0.0021,  -0.0168
1493101423.9704270363, 1493101423.9728360176,  -0.0214,  -0.0702,   0.0994,   0.0076,   0.0021,  -0.0168
1493101423.9734399319, 1493101423.9758660793,  -0.0214,  -0.0710,   0.1007,   0.0076,   0.0021,  -0.0168
1493101423.9764719009, 1493101423.9790151119,  -0.0214,  -0.0710,   0.1007,   0.0106,   0.0024,  -0.0172
1493101423.9796190262, 1493101423.9824390411,  -0.0214,  -0.0710,   0.1007,   0.0106,   0.0024,  -0.0172
1493101423.9830439091, 1493101423.9854669571,  -0.0214,  -0.0710,   0.1007,   0.0106,   0.0024,  -0.0172
1493101423.9860739708, 1493101423.9884929657,  -0.0214,  -0.0710,   0.1007,   0.0118,   0.0041,  -0.0174
1493101423.9890959263, 1493101423.9915380478,  -0.0214,  -0.0710,   0.1007,   0.0118,   0.0041,  -0.0174
1493101423.9921450615, 1493101423.9945659637,  -0.0214,  -0.0698,   0.1025,   0.0118,   0.0041,  -0.0174
1493101423.9951701164, 1493101423.9975960255,  -0.0218,  -0.0698,   0.1025,   0.0118,   0.0041,  -0.0174
1493101423.9982020855, 1493101424.0006198883,  -0.0218,  -0.0698,   0.1025,   0.0068,   0.0035,  -0.0172
1493101424.0012331009, 1493101424.0036571026,  -0.0218,  -0.0698,   0.1025,   0.0068,   0.0035,  -0.0172
1493101424.0042619705, 1493101424.0066881180,  -0.0218,  -0.0698,   0.1025,   0.0068,   0.0035,  -0.0172
1493101424.0072929859, 1493101424.0097169876,  -0.0218,  -0.0698,   0.1025,   0.0036,   0.0030,  -0.0168
1493101424.0103240013, 1493101424.0126700401,  -0.0218,  -0.0698,   0.1025,   0.0036,   0.0030,  -0.0168
1493101424.0132679939, 1493101424.0155630112,  -0.0205,  -0.0701,   0.0997,   0.0036,   0.0030,  -0.0168
1493101424.0161619186, 1493101424.0185079575,  -0.0205,  -0.0701,   0.0997,   0.0036,   0.0030,  -0.0163
1493101424.0191059113, 1493101424.0214159489,  -0.0205,  -0.0701,   0.0997,   0.0032,   0.0041,  -0.0163
1493101424.0220129490, 1493101424.0243129730,  -0.0205,  -0.0701,   0.0997,   0.0032,   0.0041,  -0.0163
1493101424.0249121189, 1493101424.0272140503,  -0.0205,  -0.0701,   0.0997,   0.0032,   0.0041,  -0.0163
1493101424.0278100967, 1493101424.0301120281,  -0.0205,  -0.0701,   0.0997,   0.0029,   0.0044,  -0.0157
1493101424.0307099819, 1493101424.0331919193,  -0.0205,  -0.0701,   0.0997,   0.0029,   0.0044,  -0.0157
1493101424.0337901115, 1493101424.0360929966,  -0.0204,  -0.0699,   0.1002,   0.0029,   0.0044,  -0.0157
1493101424.0366909504, 1493101424.0389881134,  -0.0204,  -0.0699,   0.1002,   0.0029,   0.0044,  -0.0163
1493101424.0395879745, 1493101424.0420908928,  -0.0204,  -0.0699,   0.1002,   0.0035,   0.0028,  -0.0163
1493101424.0426959991, 1493101424.0451209545,  -0.0204,  -0.0699,   0.1002,   0.0035,   0.0028,  -0.0163
1493101424.0457279682, 1493101424.0481479168,  -0.0204,  -0.0699,   0.1002,   0.0035,   0.0028,  -0.0163
1493101424.0487530231, 1493101424.0511879921,  -0.0204,  -0.0699,   0.1002,   0.0071,   0.0037,  -0.0180
1493101424.0517930984, 1493101424.0542190075,  -0.0222,  -0.0698,   0.1001,   0.0071,   0.0037,  -0.0180
1493101424.0548229218, 1493101424.0572440624,  -0.0222,  -0.0698,   0.1001,   0.0071,   0.0037,  -0.0180
1493101424.0578498840, 1493101424.0602691174,  -0.0222,  -0.0698,   0.1001,   0.0086,   0.0035,  -0.0177
1493101424.0608739853, 1493101424.0631699562,  -0.0222,  -0.0698,   0.1001,   0.0086,   0.0035,  -0.0177
1493101424.0637700558, 1493101424.0660688877,  -0.0222,  -0.0698,   0.1001,   0.0086,   0.0035,  -0.0177
1493101424.0666670799, 1493101424.0689671040,  -0.0222,  -0.0698,   0.1001,   0.0086,   0.0035,  -0.0177
1493101424.0695641041, 1493101424.0720319748,  -0.0222,  -0.0698,   0.1001,   0.0078,   0.0029,  -0.0170
1493101424.0726308823, 1493101424.0749299526,  -0.0213,  -0.0701,   0.1012,   0.0078,   0.0029,  -0.0170
1493101424.0755269527, 1493101424.0778288841,  -0.0213,  -0.0701,   0.1012,   0.0078,   0.0029,  -0.0170
1493101424.0784270763, 1493101424.0807249546,  -0.0213,  -0.0701,   0.1012,   0.0000,   0.0032,  -0.0171
1493101424.0813229084, 1493101424.0836150646,  -0.0213,  -0.0701,   0.1012,   0.0074,   0.0032,  -0.0171
1493101424.0842130184, 1493101424.0865099430,  -0.0213,  -0.0701,   0.1012,   0.0074,   0.0032,  -0.0171
1493101424.0871069431, 1493101424.0894079208,  -0.0213,  -0.0701,   0.1012,   0.0074,   0.0032,  -0.0171
1493101424.0900061131, 1493101424.0924069881,  -0.0213,  -0.0701,   0.1012,   0.0065,   0.0038,  -0.0179
1493101424.0930120945, 1493101424.0954360962,  -0.0211,  -0.0701,   0.1002,   0.0065,   0.0038,  -0.0179
1493101424.0960409641, 1493101424.0987870693,  -0.0211,  -0.0701,   0.1002,   0.0065,   0.0038,  -0.0179
1493101424.0993919373, 1493101424.1020588875,  -0.0211,  -0.0701,   0.1002,   0.0051,   0.0035,  -0.0173
1493101424.1026670933, 1493101424.1050920486,  -0.0211,  -0.0701,   0.1002,   0.0051,   0.0035,  -0.0173
1493101424.1056990623, 1493101424.1081221104,  -0.0211,  -0.0701,   0.1002,   0.0051,   0.0035,  -0.0173
1493101424.1087269783, 1493101424.1111578941,  -0.0211,  -0.0701,   0.1002,   0.0051,   0.0035,  -0.0166
1493101424.1117570400, 1493101424.1140570641,  -0.0215,  -0.0702,   0.1004,   0.0037,   0.0042,  -0.0166
1493101424.1146550179, 1493101424.1169559956,  -0.0215,  -0.0702,   0.1004,   0.0037,   0.0042,  -0.0166
1493101424.1175539494, 1493101424.1199009418,  -0.0215,  -0.0702,   0.1004,   0.0037,   0.0042,  -0.0166
1493101424.1205010414, 1493101424.1229228973,  -0.0215,  -0.0702,   0.1004,   0.0039,   0.0038,  -0.0168
1493101424.1235239506, 1493101424.1259140968,  -0.0215,  -0.0702,   0.1004,   0.0039,   0.0038,  -0.0168
1493101424.1265180111, 1493101424.1289060116,  -0.0215,  -0.0702,   0.1004,   0.0039,   0.0038,  -0.0168
1493101424.1295089722, 1493101424.1318850517,  -0.0215,  -0.0702,   0.1004,   0.0039,   0.0038,  -0.0164
1493101424.1324849129, 1493101424.1347858906,  -0.0212,  -0.0702,   0.1013,   0.0048,   0.0037,  -0.0164
1493101424.1353828907, 1493101424.1376879215,  -0.0212,  -0.0702,   0.1013,   0.0048,   0.0037,  -0.0164
1493101424.1382889748, 1493101424.1406290531,  -0.0212,  -0.0702,   0.1013,   0.0048,   0.0037,  -0.0164
1493101424.1412289143, 1493101424.1435310841,  -0.0212,  -0.0702,   0.1013,   0.0063,   0.0030,  -0.0165
1493101424.1441280842, 1493101424.1464281082,  -0.0212,  -0.0702,   0.1013,   0.0063,   0.0030,  -0.0165
1493101424.1470270157, 1493101424.1493198872,  -0.0212,  -0.0702,   0.1013,   0.0063,   0.0030,  -0.0165
1493101424.1499168873, 1493101424.1522591114,  -0.0212,  -0.0702,   0.1011,   0.0063,   0.0030,  -0.0165
1493101424.1528561115, 1493101424.1551570892,  -0.0207,  -0.0701,   0.1011,   0.0071,   0.0028,  -0.0165
1493101424.1557559967, 1493101424.1580579281,  -0.0207,  -0.0701,   0.1011,   0.0071,   0.0028,  -0.0165
1493101424.1586539745, 1493101424.1610820293,  -0.0207,  -0.0701,   0.1011,   0.0071,   0.0028,  -0.0165
1493101424.1616909504, 1493101424.1641199589,  -0.0207,  -0.0701,   0.1011,   0.0076,   0.0030,  -0.0172
1493101424.1647241116, 1493101424.1671469212,  -0.0207,  -0.0701,   0.1011,   0.0076,   0.0030,  -0.0172
1493101424.1677510738, 1493101424.1701819897,  -0.0207,  -0.0701,   0.1011,   0.0076,   0.0030,  -0.0172
1493101424.1707870960, 1493101424.1731040478,  -0.0214,  -0.0703,   0.1016,   0.0076,   0.0038,  -0.0175
1493101424.1737039089, 1493101424.1760001183,  -0.0214,  -0.0703,   0.1016,   0.0067,   0.0038,  -0.0175
1493101424.1765980721, 1493101424.1789050102,  -0.0214,  -0.0703,   0.1016,   0.0067,   0.0038,  -0.0175
1493101424.1795029640, 1493101424.1819059849,  -0.0214,  -0.0703,   0.1016,   0.0067,   0.0038,  -0.0175
1493101424.1825060844, 1493101424.1848030090,  -0.0214,  -0.0703,   0.1016,   0.0063,   0.0033,  -0.0171
1493101424.1854000092, 1493101424.1877009869,  -0.0214,  -0.0703,   0.1016,   0.0063,   0.0033,  -0.0171
1493101424.1882998943, 1493101424.1905980110,  -0.0214,  -0.0703,   0.1016,   0.0063,   0.0033,  -0.0171
1493101424.1912050247, 1493101424.1936309338,  -0.0211,  -0.0696,   0.1003,   0.0063,   0.0033,  -0.0163
1493101424.1942360401, 1493101424.1966619492,  -0.0211,  -0.0696,   0.1003,   0.0054,   0.0034,  -0.0163
1493101424.1972670555, 1493101424.1996889114,  -0.0211,  -0.0696,   0.1003,   0.0054,   0.0034,  -0.0163
1493101424.2002930641, 1493101424.2026770115,  -0.0211,  -0.0696,   0.1003,   0.0054,   0.0034,  -0.0163
1493101424.2032771111, 1493101424.2055809498,  -0.0211,  -0.0696,   0.1003,   0.0046,   0.0035,  -0.0168
1493101424.2061779499, 1493101424.2084729671,  -0.0211,  -0.0696,   0.1003,   0.0046,   0.0035,  -0.0168
1493101424.2090730667, 1493101424.2114770412,  -0.0211,  -0.0696,   0.1003,   0.0046,   0.0035,  -0.0168
1493101424.2120800018, 1493101424.2144610882,  -0.0215,  -0.0704,   0.1003,   0.0046,   0.0038,  -0.0165
1493101424.2150650024, 1493101424.2176060677,  -0.0215,  -0.0704,   0.1003,   0.0049,   0.0038,  -0.0165
1493101424.2182130814, 1493101424.2206249237,  -0.0215,  -0.0704,   0.1003,   0.0049,   0.0038,  -0.0165
1493101424.2216219902, 1493101424.2240540981,  -0.0215,  -0.0704,   0.1003,   0.0049,   0.0038,  -0.0169
1493101424.2246599197, 1493101424.2270839214,  -0.0215,  -0.0704,   0.1003,   0.0056,   0.0037,  -0.0169
1493101424.2276909351, 1493101424.2301108837,  -0.0215,  -0.0704,   0.1003,   0.0056,   0.0037,  -0.0169
1493101424.2307150364, 1493101424.2331550121,  -0.0212,  -0.0703,   0.1015,   0.0056,   0.0037,  -0.0169
1493101424.2337610722, 1493101424.2361850739,  -0.0212,  -0.0703,   0.1015,   0.0055,   0.0038,  -0.0165
1493101424.2367899418, 1493101424.2392129898,  -0.0212,  -0.0703,   0.1015,   0.0055,   0.0038,  -0.0165
1493101424.2398190498, 1493101424.2422490120,  -0.0212,  -0.0703,   0.1015,   0.0055,   0.0038,  -0.0165
1493101424.2428541183, 1493101424.2452790737,  -0.0212,  -0.0703,   0.1015,   0.0055,   0.0037,  -0.0165
1493101424.2458860874, 1493101424.2483150959,  -0.0212,  -0.0703,   0.1015,   0.0066,   0.0037,  -0.0165
1493101424.2489199638, 1493101424.2513380051,  -0.0212,  -0.0703,   0.1014,   0.0066,   0.0037,  -0.0165
1493101424.2519369125, 1493101424.2542369366,  -0.0216,  -0.0699,   0.1014,   0.0066,   0.0037,  -0.0165
1493101424.2548348904, 1493101424.2571361065,  -0.0216,  -0.0699,   0.1014,   0.0065,   0.0038,  -0.0167
1493101424.2577331066, 1493101424.2600309849,  -0.0216,  -0.0699,   0.1014,   0.0065,   0.0038,  -0.0167
1493101424.2606298923, 1493101424.2629399300,  -0.0216,  -0.0699,   0.1014,   0.0065,   0.0038,  -0.0167
1493101424.2635378838, 1493101424.2658419609,  -0.0216,  -0.0699,   0.1014,   0.0065,   0.0034,  -0.0170
1493101424.2664399147, 1493101424.2687358856,  -0.0216,  -0.0699,   0.1014,   0.0067,   0.0034,  -0.0170
1493101424.2693359852, 1493101424.2716419697,  -0.0216,  -0.0701,   0.1007,   0.0067,   0.0034,  -0.0170
1493101424.2722399235, 1493101424.2745420933,  -0.0208,  -0.0701,   0.1007,   0.0067,   0.0034,  -0.0170
1493101424.2751410007, 1493101424.2774391174,  -0.0208,  -0.0701,   0.1007,   0.0071,   0.0036,  -0.0173
1493101424.2780370712, 1493101424.2803409100,  -0.0208,  -0.0701,   0.1007,   0.0071,   0.0036,  -0.0173
1493101424.2810509205, 1493101424.2833750248,  -0.0208,  -0.0701,   0.1007,   0.0071,   0.0036,  -0.0173
1493101424.2839748859, 1493101424.2862739563,  -0.0208,  -0.0701,   0.1007,   0.0071,   0.0030,  -0.0166
1493101424.2868709564, 1493101424.2891778946,  -0.0208,  -0.0701,   0.1007,   0.0057,   0.0030,  -0.0166
1493101424.2897770405, 1493101424.2922749519,  -0.0215,  -0.0694,   0.1011,   0.0057,   0.0030,  -0.0166
1493101424.2928800583, 1493101424.2953090668,  -0.0215,  -0.0694,   0.1011,   0.0057,   0.0030,  -0.0166
1493101424.2959148884, 1493101424.2983379364,  -0.0215,  -0.0694,   0.1011,   0.0059,   0.0037,  -0.0169
1493101424.2989430428, 1493101424.3013570309,  -0.0215,  -0.0694,   0.1011,   0.0059,   0.0037,  -0.0169
1493101424.3019559383, 1493101424.3042569160,  -0.0215,  -0.0694,   0.1011,   0.0059,   0.0037,  -0.0169
1493101424.3048539162, 1493101424.3071498871,  -0.0215,  -0.0694,   0.1011,   0.0055,   0.0036,  -0.0166
1493101424.3077490330, 1493101424.3100481033,  -0.0215,  -0.0694,   0.1011,   0.0055,   0.0036,  -0.0166
