timestamp_before,timestamp_after,accel_x,accel_y,accel_z,gyro_x,gyro_y,gryo_z
1492035421.9214479923,1492035421.9248299599, -0.1743,  0.0262,  0.0106, -0.0006,  0.0111, -0.0181
1492035421.9252820015,1492035421.9275860786, -0.1895,  0.0303,  0.0070, -0.0006,  0.0111, -0.0181
1492035421.9279570580,1492035421.9302949905, -0.1895,  0.0303,  0.0070, -0.0006,  0.0111, -0.0181
1492035421.9306631088,1492035421.9329650402, -0.1895,  0.0303,  0.0070, -0.0006,  0.0091, -0.0183
1492035421.9333360195,1492035421.9356300831, -0.1895,  0.0303,  0.0070, -0.0025,  0.0091, -0.0183
1492035421.9360029697,1492035421.9382979870, -0.1895,  0.0303,  0.0070, -0.0025,  0.0091, -0.0183
1492035421.9386699200,1492035421.9411470890, -0.1895,  0.0303,  0.0070, -0.0025,  0.0091, -0.0183
1492035421.9415190220,1492035421.9438149929, -0.1895,  0.0303,  0.0070, -0.0085,  0.0077, -0.0174
1492035421.9441850185,1492035421.9464900494, -0.1739,  0.0352,  0.0070, -0.0085,  0.0077, -0.0174
1492035421.9468610287,1492035421.9491560459, -0.1747,  0.0352,  0.0070, -0.0085,  0.0077, -0.0174
1492035421.9495270252,1492035421.9519789219, -0.1747,  0.0352,  0.0070, -0.0085,  0.0077, -0.0174
1492035421.9523510933,1492035421.9546530247, -0.1747,  0.0352,  0.0070, -0.0119,  0.0056, -0.0185
1492035421.9550240040,1492035421.9573309422, -0.1747,  0.0352,  0.0070, -0.0119,  0.0056, -0.0185
1492035421.9577009678,1492035421.9600739479, -0.1747,  0.0352,  0.0070, -0.0119,  0.0056, -0.0185
1492035421.9604439735,1492035421.9627449512, -0.1747,  0.0352,  0.0070, -0.0119,  0.0056, -0.0185
1492035421.9631159306,1492035421.9654130936, -0.1747,  0.0352,  0.0070, -0.0106,  0.0063, -0.0208
1492035421.9657831192,1492035421.9680840969, -0.1884,  0.0423,  0.0018, -0.0106,  0.0063, -0.0208
1492035421.9684550762,1492035421.9708459377, -0.1884,  0.0423,  0.0018, -0.0106,  0.0063, -0.0208
1492035421.9712240696,1492035421.9736359119, -0.1884,  0.0423,  0.0018, -0.0106,  0.0063, -0.0222
1492035421.9740130901,1492035421.9764270782, -0.1884,  0.0423,  0.0018, -0.0128,  0.0045, -0.0222
1492035421.9768021107,1492035421.9792170525, -0.1884,  0.0423,  0.0018, -0.0128,  0.0045, -0.0222
1492035421.9795930386,1492035421.9820330143, -0.1884,  0.0423,  0.0018, -0.0128,  0.0045, -0.0222
1492035421.9824070930,1492035421.9847970009, -0.1884,  0.0423,  0.0018, -0.0154,  0.0031, -0.0233
1492035421.9851710796,1492035421.9875628948, -0.1955,  0.0315, -0.0002, -0.0154,  0.0031, -0.0233
1492035421.9879360199,1492035421.9903309345, -0.1955,  0.0315, -0.0002, -0.0154,  0.0031, -0.0233
1492035421.9907000065,1492035421.9930059910, -0.1955,  0.0315, -0.0002, -0.0154,  0.0031, -0.0233
1492035421.9933741093,1492035421.9956729412, -0.1955,  0.0315, -0.0002, -0.0203,  0.0024, -0.0225
1492035421.9960429668,1492035421.9983479977, -0.1955,  0.0315, -0.0002, -0.0203,  0.0024, -0.0225
1492035421.9987161160,1492035422.0011940002, -0.1955,  0.0315, -0.0002, -0.0203,  0.0024, -0.0225
1492035422.0015640259,1492035422.0038690567, -0.1955,  0.0315, -0.0002, -0.0203,  0.0024, -0.0225
1492035422.0042390823,1492035422.0066370964, -0.1873,  0.0136,  0.0260, -0.0244, -0.0026, -0.0202
1492035422.0070080757,1492035422.0093119144, -0.1873,  0.0136,  0.0260, -0.0244, -0.0026, -0.0202
1492035422.0096819401,1492035422.0121080875, -0.1873,  0.0136,  0.0260, -0.0244, -0.0026, -0.0202
1492035422.0124850273,1492035422.0149109364, -0.1873,  0.0136,  0.0260, -0.0244, -0.0026, -0.0216
1492035422.0152881145,1492035422.0177130699, -0.1873,  0.0136,  0.0260, -0.0208, -0.0054, -0.0216
1492035422.0180900097,1492035422.0205330849, -0.1873,  0.0136,  0.0260, -0.0208, -0.0054, -0.0216
1492035422.0209109783,1492035422.0233390331, -0.1873,  0.0136,  0.0260, -0.0208, -0.0054, -0.0216
1492035422.0237140656,1492035422.0261440277, -0.1886,  0.0177,  0.0179, -0.0146, -0.0060, -0.0233
1492035422.0265231133,1492035422.0289449692, -0.1886,  0.0177,  0.0179, -0.0146, -0.0060, -0.0233
1492035422.0293219090,1492035422.0317580700, -0.1886,  0.0177,  0.0179, -0.0146, -0.0060, -0.0233
1492035422.0321359634,1492035422.0345640182, -0.1886,  0.0177,  0.0179, -0.0146, -0.0060, -0.0233
1492035422.0349409580,1492035422.0373680592, -0.1886,  0.0177,  0.0179, -0.0150, -0.0105, -0.0232
1492035422.0378999710,1492035422.0403280258, -0.1886,  0.0177,  0.0179, -0.0150, -0.0105, -0.0232
1492035422.0406970978,1492035422.0430009365, -0.1886,  0.0177,  0.0179, -0.0150, -0.0105, -0.0232
1492035422.0433681011,1492035422.0456690788, -0.1851,  0.0179,  0.0291, -0.0150, -0.0105, -0.0235
1492035422.0460369587,1492035422.0483469963, -0.1851,  0.0179,  0.0291, -0.0107, -0.0086, -0.0235
1492035422.0487179756,1492035422.0511190891, -0.1851,  0.0179,  0.0291, -0.0107, -0.0086, -0.0235
1492035422.0514879227,1492035422.0537939072, -0.1851,  0.0179,  0.0291, -0.0107, -0.0086, -0.0235
1492035422.0541620255,1492035422.0564720631, -0.1851,  0.0179,  0.0291, -0.0107, -0.0035, -0.0233
1492035422.0568408966,1492035422.0591468811, -0.1851,  0.0179,  0.0291, -0.0022, -0.0035, -0.0233
1492035422.0595159531,1492035422.0620329380, -0.1851,  0.0179,  0.0291, -0.0022, -0.0035, -0.0233
1492035422.0624129772,1492035422.0648410320, -0.1851,  0.0179,  0.0334, -0.0022, -0.0035, -0.0233
1492035422.0652179718,1492035422.0676379204, -0.1883,  0.0186,  0.0334,  0.0053,  0.0002, -0.0237
1492035422.0680139065,1492035422.0704560280, -0.1883,  0.0186,  0.0334,  0.0053,  0.0002, -0.0237
1492035422.0708339214,1492035422.0732619762, -0.1883,  0.0186,  0.0334,  0.0053,  0.0002, -0.0237
1492035422.0736379623,1492035422.0760641098, -0.1883,  0.0186,  0.0334,  0.0053,  0.0002, -0.0237
1492035422.0764400959,1492035422.0788679123, -0.1883,  0.0186,  0.0334,  0.0072,  0.0047, -0.0235
1492035422.0792450905,1492035422.0816800594, -0.1883,  0.0186,  0.0334,  0.0072,  0.0047, -0.0235
1492035422.0820579529,1492035422.0844841003, -0.1883,  0.0186,  0.0273,  0.0072,  0.0047, -0.0235
1492035422.0848610401,1492035422.0872869492, -0.1876,  0.0151,  0.0273,  0.0072,  0.0047, -0.0221
1492035422.0876638889,1492035422.0900969505, -0.1876,  0.0151,  0.0273,  0.0046,  0.0068, -0.0221
1492035422.0904750824,1492035422.0929069519, -0.1876,  0.0151,  0.0273,  0.0046,  0.0068, -0.0221
1492035422.0932829380,1492035422.0957100391, -0.1876,  0.0151,  0.0273,  0.0046,  0.0068, -0.0221
1492035422.0960860252,1492035422.0985100269, -0.1876,  0.0151,  0.0273,  0.0030,  0.0078, -0.0189
1492035422.0988869667,1492035422.1013479233, -0.1876,  0.0151,  0.0273,  0.0030,  0.0078, -0.0189
1492035422.1017260551,1492035422.1041510105, -0.1876,  0.0151,  0.0273,  0.0030,  0.0078, -0.0189
1492035422.1045279503,1492035422.1069550514, -0.1852,  0.0112,  0.0280,  0.0030,  0.0078, -0.0189
1492035422.1073329449,1492035422.1097669601, -0.1852,  0.0112,  0.0280,  0.0020,  0.0070, -0.0175
1492035422.1101460457,1492035422.1124548912, -0.1852,  0.0112,  0.0280,  0.0020,  0.0070, -0.0175
1492035422.1128270626,1492035422.1151349545, -0.1852,  0.0112,  0.0280,  0.0020,  0.0070, -0.0175
1492035422.1155030727,1492035422.1178090572, -0.1852,  0.0112,  0.0280,  0.0020,  0.0070, -0.0152
1492035422.1181778908,1492035422.1205050945, -0.1852,  0.0112,  0.0280,  0.0014,  0.0076, -0.0152
1492035422.1208760738,1492035422.1231770515, -0.1852,  0.0112,  0.0280,  0.0014,  0.0076, -0.0152
1492035422.1235458851,1492035422.1258430481, -0.1842,  0.0212,  0.0289,  0.0014,  0.0076, -0.0152
1492035422.1262140274,1492035422.1285140514, -0.1842,  0.0212,  0.0289,  0.0014,  0.0081, -0.0146
1492035422.1288859844,1492035422.1313400269, -0.1842,  0.0212,  0.0289,  0.0008,  0.0081, -0.0146
1492035422.1317100525,1492035422.1340100765, -0.1842,  0.0212,  0.0289,  0.0008,  0.0081, -0.0146
1492035422.1343810558,1492035422.1367650032, -0.1842,  0.0212,  0.0289,  0.0008,  0.0081, -0.0146
1492035422.1371350288,1492035422.1394340992, -0.1842,  0.0212,  0.0289,  0.0060,  0.0101, -0.0157
1492035422.1406190395,1492035422.1430308819, -0.1842,  0.0212,  0.0289,  0.0060,  0.0101, -0.0157
1492035422.1434099674,1492035422.1458230019, -0.1875,  0.0257,  0.0248,  0.0060,  0.0101, -0.0157
1492035422.1461999416,1492035422.1486110687, -0.1875,  0.0257,  0.0248,  0.0060,  0.0101, -0.0163
1492035422.1490070820,1492035422.1518290043, -0.1875,  0.0257,  0.0248,  0.0116,  0.0148, -0.0163
1492035422.1523358822,1492035422.1546308994, -0.1875,  0.0257,  0.0248,  0.0116,  0.0148, -0.0163
1492035422.1549990177,1492035422.1572990417, -0.1875,  0.0257,  0.0248,  0.0116,  0.0148, -0.0163
1492035422.1576681137,1492035422.1599678993, -0.1875,  0.0257,  0.0248,  0.0175,  0.0178, -0.0176
1492035422.1603989601,1492035422.1627008915, -0.1875,  0.0257,  0.0248,  0.0175,  0.0178, -0.0176
1492035422.1630680561,1492035422.1653649807, -0.1849,  0.0178,  0.0253,  0.0175,  0.0178, -0.0176
1492035422.1657330990,1492035422.1680319309, -0.1849,  0.0178,  0.0253,  0.0175,  0.0178, -0.0176
1492035422.1684010029,1492035422.1707019806, -0.1849,  0.0178,  0.0253,  0.0221,  0.0216, -0.0166
1492035422.1710729599,1492035422.1733760834, -0.1849,  0.0178,  0.0253,  0.0221,  0.0216, -0.0166
1492035422.1737461090,1492035422.1760430336, -0.1849,  0.0178,  0.0253,  0.0221,  0.0216, -0.0166
1492035422.1764099598,1492035422.1786971092, -0.1849,  0.0178,  0.0253,  0.0221,  0.0216, -0.0166
1492035422.1790649891,1492035422.1814169884, -0.1849,  0.0178,  0.0253,  0.0234,  0.0246, -0.0148
1492035422.1817839146,1492035422.1840848923, -0.1849,  0.0191,  0.0265,  0.0234,  0.0246, -0.0148
1492035422.1844539642,1492035422.1867589951, -0.1871,  0.0191,  0.0265,  0.0234,  0.0246, -0.0148
1492035422.1871290207,1492035422.1894299984, -0.1871,  0.0191,  0.0265,  0.0234,  0.0246, -0.0148
1492035422.1897981167,1492035422.1922619343, -0.1871,  0.0191,  0.0265,  0.0244,  0.0299, -0.0116
1492035422.1926310062,1492035422.1949338913, -0.1871,  0.0191,  0.0265,  0.0244,  0.0299, -0.0116
1492035422.1953020096,1492035422.1976048946, -0.1871,  0.0191,  0.0265,  0.0244,  0.0299, -0.0116
1492035422.1979720592,1492035422.2004930973, -0.1871,  0.0191,  0.0265,  0.0244,  0.0378, -0.0098
1492035422.2008819580,1492035422.2044909000, -0.1871,  0.0191,  0.0280,  0.0291,  0.0349, -0.0098
1492035422.2048940659,1492035422.2082951069, -0.1875,  0.0184,  0.0280,  0.0291,  0.0349, -0.0098
1492035422.2086980343,1492035422.2121789455, -0.1875,  0.0184,  0.0280,  0.0347,  0.0408, -0.0076
1492035422.2125790119,1492035422.2150969505, -0.1875,  0.0184,  0.0280,  0.0347,  0.0408, -0.0076
1492035422.2154810429,1492035422.2178990841, -0.1875,  0.0184,  0.0280,  0.0347,  0.0408, -0.0076
1492035422.2182769775,1492035422.2207078934, -0.1875,  0.0184,  0.0280,  0.0347,  0.0408, -0.0053
1492035422.2210860252,1492035422.2234969139, -0.1875,  0.0184,  0.0308,  0.0370,  0.0463, -0.0053
1492035422.2238729000,1492035422.2262880802, -0.1849,  0.0190,  0.0308,  0.0370,  0.0463, -0.0053
1492035422.2266650200,1492035422.2290840149, -0.1849,  0.0190,  0.0308,  0.0370,  0.0463, -0.0053
1492035422.2294580936,1492035422.2319090366, -0.1849,  0.0190,  0.0308,  0.0353,  0.0495, -0.0004
1492035422.2322878838,1492035422.2347159386, -0.1849,  0.0190,  0.0308,  0.0353,  0.0495, -0.0004
1492035422.2350919247,1492035422.2375190258, -0.1849,  0.0190,  0.0308,  0.0353,  0.0495, -0.0004
1492035422.2378959656,1492035422.2403280735, -0.1849,  0.0190,  0.0308,  0.0353,  0.0495, -0.0004
1492035422.2407050133,1492035422.2431299686, -0.1849,  0.0190,  0.0224,  0.0315,  0.0516,  0.0066
1492035422.2435081005,1492035422.2459349632, -0.1831,  0.0110,  0.0224,  0.0315,  0.0516,  0.0066
1492035422.2463109493,1492035422.2487349510, -0.1831,  0.0110,  0.0224,  0.0315,  0.0516,  0.0066
1492035422.2491109371,1492035422.2514739037, -0.1831,  0.0110,  0.0224,  0.0315,  0.0516,  0.0097
1492035422.2518448830,1492035422.2541429996, -0.1831,  0.0110,  0.0224,  0.0269,  0.0529,  0.0097
1492035422.2545120716,1492035422.2569010258, -0.1831,  0.0110,  0.0224,  0.0269,  0.0529,  0.0097
1492035422.2572710514,1492035422.2595698833, -0.1831,  0.0110,  0.0224,  0.0269,  0.0529,  0.0097
1492035422.2599380016,1492035422.2623610497, -0.1831,  0.0110,  0.0224,  0.0269,  0.0519,  0.0147
1492035422.2627370358,1492035422.2651660442, -0.1834,  0.0151,  0.0223,  0.0228,  0.0519,  0.0147
1492035422.2655410767,1492035422.2679610252, -0.1834,  0.0151,  0.0223,  0.0228,  0.0519,  0.0147
1492035422.2683370113,1492035422.2707738876, -0.1834,  0.0151,  0.0223,  0.0228,  0.0519,  0.0147
1492035422.2712950706,1492035422.2737250328, -0.1834,  0.0151,  0.0223,  0.0214,  0.0553,  0.0161
1492035422.2741010189,1492035422.2765269279, -0.1834,  0.0151,  0.0223,  0.0214,  0.0553,  0.0161
1492035422.2769029140,1492035422.2793290615, -0.1834,  0.0151,  0.0223,  0.0214,  0.0553,  0.0161
1492035422.2797029018,1492035422.2822370529, -0.1834,  0.0151,  0.0223,  0.0214,  0.0553,  0.0161
1492035422.2826139927,1492035422.2850430012, -0.1876,  0.0274,  0.0222,  0.0206,  0.0570,  0.0201
1492035422.2854199409,1492035422.2878439426, -0.1876,  0.0274,  0.0222,  0.0206,  0.0570,  0.0201
1492035422.2882189751,1492035422.2906301022, -0.1876,  0.0274,  0.0222,  0.0206,  0.0570,  0.0201
1492035422.2909989357,1492035422.2933020592, -0.1876,  0.0274,  0.0222,  0.0206,  0.0590,  0.0262
1492035422.2936689854,1492035422.2959699631, -0.1876,  0.0274,  0.0222,  0.0214,  0.0590,  0.0262
1492035422.2963368893,1492035422.2986369133, -0.1876,  0.0274,  0.0222,  0.0214,  0.0590,  0.0262
1492035422.2990040779,1492035422.3014829159, -0.1876,  0.0274,  0.0222,  0.0214,  0.0590,  0.0262
1492035422.3018519878,1492035422.3041510582, -0.1872,  0.0223,  0.0177,  0.0209,  0.0625,  0.0285
1492035422.3045189381,1492035422.3068230152, -0.1872,  0.0223,  0.0177,  0.0209,  0.0625,  0.0285
1492035422.3071908951,1492035422.3094921112, -0.1872,  0.0223,  0.0177,  0.0209,  0.0625,  0.0285
1492035422.3098590374,1492035422.3123800755, -0.1872,  0.0223,  0.0177,  0.0209,  0.0625,  0.0285
1492035422.3127570152,1492035422.3151860237, -0.1872,  0.0223,  0.0177,  0.0209,  0.0653,  0.0342
1492035422.3155620098,1492035422.3179879189, -0.1872,  0.0223,  0.0177,  0.0209,  0.0653,  0.0342
1492035422.3183629513,1492035422.3208310604, -0.1872,  0.0223,  0.0177,  0.0209,  0.0653,  0.0342
1492035422.3212080002,1492035422.3236329556, -0.1891,  0.0125,  0.0293,  0.0209,  0.0653,  0.0411
1492035422.3240098953,1492035422.3264338970, -0.1891,  0.0125,  0.0293,  0.0196,  0.0686,  0.0411
1492035422.3268079758,1492035422.3292410374, -0.1891,  0.0125,  0.0293,  0.0196,  0.0686,  0.0411
1492035422.3296170235,1492035422.3320550919, -0.1891,  0.0125,  0.0293,  0.0196,  0.0686,  0.0411
1492035422.3324329853,1492035422.3348550797, -0.1891,  0.0125,  0.0293,  0.0163,  0.0756,  0.0516
1492035422.3352310658,1492035422.3376541138, -0.1891,  0.0125,  0.0293,  0.0163,  0.0756,  0.0516
1492035422.3380300999,1492035422.3404490948, -0.1891,  0.0125,  0.0293,  0.0163,  0.0756,  0.0516
1492035422.3408188820,1492035422.3431169987, -0.1930,  0.0038,  0.0394,  0.0163,  0.0756,  0.0516
1492035422.3434879780,1492035422.3457839489, -0.1930,  0.0038,  0.0394,  0.0156,  0.0823,  0.0639
1492035422.3461530209,1492035422.3485219479, -0.1930,  0.0038,  0.0394,  0.0156,  0.0823,  0.0639
1492035422.3488929272,1492035422.3512868881, -0.1930,  0.0038,  0.0394,  0.0156,  0.0823,  0.0639
1492035422.3516609669,1492035422.3540539742, -0.1930,  0.0038,  0.0394,  0.0156,  0.0823,  0.0639
1492035422.3544309139,1492035422.3568511009, -0.1930,  0.0038,  0.0394,  0.0113,  0.0927,  0.0760
1492035422.3572289944,1492035422.3596589565, -0.1930,  0.0038,  0.0394,  0.0113,  0.0927,  0.0760
1492035422.3600440025,1492035422.3624720573, -0.1930,  0.0267,  0.0172,  0.0113,  0.0927,  0.0760
1492035422.3628480434,1492035422.3652749062, -0.2031,  0.0267,  0.0172,  0.0113,  0.1077,  0.0919
1492035422.3656549454,1492035422.3680839539, -0.2031,  0.0267,  0.0172,  0.0088,  0.1077,  0.0919
1492035422.3684599400,1492035422.3708600998, -0.2031,  0.0267,  0.0172,  0.0088,  0.1077,  0.0919
1492035422.3712289333,1492035422.3735330105, -0.2031,  0.0267,  0.0172,  0.0088,  0.1077,  0.0919
1492035422.3739030361,1492035422.3762030602, -0.2031,  0.0267,  0.0172,  0.0153,  0.1219,  0.1085
1492035422.3765740395,1492035422.3788719177, -0.2031,  0.0267,  0.0172,  0.0153,  0.1219,  0.1085
1492035422.3792409897,1492035422.3817141056, -0.2031,  0.0267,  0.0043,  0.0153,  0.1219,  0.1085
1492035422.3820910454,1492035422.3845200539, -0.2180,  0.0332,  0.0043,  0.0153,  0.1219,  0.1085
1492035422.3848960400,1492035422.3873169422, -0.2180,  0.0332,  0.0043,  0.0379,  0.1393,  0.1250
1492035422.3878059387,1492035422.3902380466, -0.2180,  0.0332,  0.0043,  0.0379,  0.1393,  0.1250
1492035422.3906059265,1492035422.3929069042, -0.2180,  0.0332,  0.0043,  0.0379,  0.1393,  0.1250
1492035422.3932759762,1492035422.3955769539, -0.2180,  0.0332,  0.0043,  0.0379,  0.1393,  0.1435
1492035422.3959460258,1492035422.3982501030, -0.2180,  0.0332,  0.0043,  0.0723,  0.1530,  0.1435
1492035422.3986189365,1492035422.4010279179, -0.2180,  0.0332,  0.0043,  0.0723,  0.1530,  0.1435
1492035422.4014060497,1492035422.4038310051, -0.2313,  0.0093,  0.0198,  0.0723,  0.1530,  0.1435
1492035422.4042079449,1492035422.4066350460, -0.2313,  0.0093,  0.0198,  0.0997,  0.1709,  0.1671
1492035422.4070138931,1492035422.4094390869, -0.2313,  0.0093,  0.0198,  0.0997,  0.1709,  0.1671
1492035422.4098179340,1492035422.4122519493, -0.2313,  0.0093,  0.0198,  0.0997,  0.1709,  0.1671
1492035422.4126279354,1492035422.4150540829, -0.2313,  0.0093,  0.0198,  0.0997,  0.1709,  0.1671
1492035422.4154310226,1492035422.4178531170, -0.2313,  0.0093,  0.0198,  0.1366,  0.1929,  0.1916
1492035422.4182300568,1492035422.4206690788, -0.2313,  0.0093,  0.0198,  0.1366,  0.1929,  0.1916
1492035422.4210450649,1492035422.4234669209, -0.2938,  0.0511,  0.0186,  0.1366,  0.1929,  0.1916
1492035422.4238419533,1492035422.4262619019, -0.2938,  0.0511,  0.0186,  0.1366,  0.1929,  0.2151
1492035422.4266400337,1492035422.4290699959, -0.2938,  0.0511,  0.0186,  0.1815,  0.2213,  0.2167
1492035422.4294469357,1492035422.4318840504, -0.2938,  0.0511,  0.0186,  0.1815,  0.2213,  0.2167
1492035422.4322609901,1492035422.4346799850, -0.2938,  0.0511,  0.0186,  0.1815,  0.2213,  0.2167
1492035422.4350569248,1492035422.4374790192, -0.2938,  0.0511,  0.0186,  0.2128,  0.2588,  0.2326
1492035422.4378540516,1492035422.4402821064, -0.2938,  0.0511,  0.0186,  0.2133,  0.2588,  0.2326
1492035422.4406509399,1492035422.4429550171, -0.3762,  0.0159,  0.0272,  0.2133,  0.2588,  0.2326
1492035422.4433228970,1492035422.4456210136, -0.3762,  0.0159,  0.0272,  0.2133,  0.2588,  0.2326
1492035422.4459900856,1492035422.4482860565, -0.3762,  0.0159,  0.0272,  0.2144,  0.3044,  0.2400
1492035422.4486539364,1492035422.4510540962, -0.3762,  0.0159,  0.0272,  0.2144,  0.3044,  0.2400
1492035422.4514300823,1492035422.4538569450, -0.3762,  0.0159,  0.0272,  0.2144,  0.3044,  0.2400
1492035422.4542338848,1492035422.4566531181, -0.3762,  0.0159,  0.0272,  0.2144,  0.3044,  0.2400
1492035422.4570279121,1492035422.4594581127, -0.3762,  0.0159,  0.0272,  0.1647,  0.3513,  0.2555
1492035422.4598350525,1492035422.4622681141, -0.5215, -0.0568, -0.0097,  0.1647,  0.3513,  0.2555
1492035422.4626460075,1492035422.4650709629, -0.5215, -0.0568, -0.0097,  0.1647,  0.3513,  0.2555
1492035422.4654479027,1492035422.4678709507, -0.5215, -0.0568, -0.0097,  0.1647,  0.3982,  0.2989
1492035422.4682478905,1492035422.4706830978, -0.5215, -0.0568, -0.0097,  0.0685,  0.3934,  0.2989
1492035422.4710590839,1492035422.4734859467, -0.5215, -0.0568, -0.0097,  0.0685,  0.3934,  0.2989
1492035422.4738650322,1492035422.4762849808, -0.5215, -0.0568, -0.0097,  0.0685,  0.3934,  0.2989
1492035422.4766619205,1492035422.4790890217, -0.5215, -0.0568, -0.0097, -0.0342,  0.4027,  0.3466
1492035422.4794659615,1492035422.4819169044, -0.5634, -0.1965,  0.1127, -0.0342,  0.4027,  0.3466
1492035422.4822950363,1492035422.4847259521, -0.5634, -0.1965,  0.1127, -0.0342,  0.4027,  0.3466
1492035422.4851019382,1492035422.4875299931, -0.5634, -0.1965,  0.1127, -0.0342,  0.4027,  0.3466
1492035422.4879050255,1492035422.4903318882, -0.5634, -0.1965,  0.1127, -0.1487,  0.4184,  0.3771
1492035422.4907009602,1492035422.4930069447, -0.5634, -0.1965,  0.1127, -0.1487,  0.4184,  0.3771
1492035422.4933769703,1492035422.4956769943, -0.5634, -0.1965,  0.1127, -0.1487,  0.4184,  0.3771
1492035422.4960460663,1492035422.4983439445, -0.5634, -0.1965,  0.1127, -0.1487,  0.4184,  0.4083
1492035422.4987120628,1492035422.5010449886, -0.5634, -0.0645,  0.0139, -0.2628,  0.4454,  0.4108
1492035422.5014140606,1492035422.5037128925, -0.5295, -0.0645,  0.0139, -0.2628,  0.4454,  0.4108
1492035422.5041880608,1492035422.5064880848, -0.5295, -0.0645,  0.0139, -0.2628,  0.4454,  0.4108
1492035422.5068559647,1492035422.5091509819, -0.5295, -0.0645,  0.0139, -0.2628,  0.4444,  0.4323
1492035422.5095210075,1492035422.5119540691, -0.5295, -0.0645,  0.0139, -0.3484,  0.4444,  0.4323
1492035422.5123310089,1492035422.5147590637, -0.5295, -0.0645,  0.0139, -0.3484,  0.4444,  0.4323
1492035422.5151340961,1492035422.5175631046, -0.5295, -0.0645,  0.0139, -0.3484,  0.4444,  0.4323
1492035422.5179400444,1492035422.5203680992, -0.5295, -0.0645,  0.0686, -0.4152,  0.4282,  0.4230
1492035422.5207459927,1492035422.5231740475, -0.3776, -0.0832,  0.0701, -0.4152,  0.4282,  0.4230
1492035422.5235509872,1492035422.5259790421, -0.3776, -0.0832,  0.0701, -0.4152,  0.4282,  0.4230
1492035422.5263550282,1492035422.5287818909, -0.3776, -0.0832,  0.0701, -0.4152,  0.4282,  0.4230
1492035422.5291609764,1492035422.5316340923, -0.3776, -0.0832,  0.0701, -0.4339,  0.4155,  0.4006
1492035422.5320100784,1492035422.5344319344, -0.3776, -0.0832,  0.0701, -0.4339,  0.4155,  0.4006
1492035422.5348079205,1492035422.5372281075, -0.3776, -0.0832,  0.0701, -0.4339,  0.4155,  0.4006
1492035422.5376040936,1492035422.5400400162, -0.3776, -0.0832,  0.1483, -0.4339,  0.3921,  0.3614
1492035422.5404179096,1492035422.5428400040, -0.3199, -0.0318,  0.1448, -0.3997,  0.3966,  0.3614
1492035422.5432159901,1492035422.5456418991, -0.3199, -0.0318,  0.1448, -0.3997,  0.3966,  0.3614
1492035422.5460190773,1492035422.5484490395, -0.3199, -0.0318,  0.1448, -0.3997,  0.3966,  0.3614
1492035422.5488259792,1492035422.5511999130, -0.3199, -0.0318,  0.1448, -0.3790,  0.3400,  0.3343
1492035422.5515670776,1492035422.5538721085, -0.3199, -0.0318,  0.1448, -0.3790,  0.3400,  0.3343
1492035422.5542399883,1492035422.5565390587, -0.3199, -0.0318,  0.1448, -0.3790,  0.3400,  0.3343
1492035422.5569069386,1492035422.5592050552, -0.3199, -0.0318,  0.1448, -0.3790,  0.3400,  0.3343
1492035422.5595750809,1492035422.5620310307, -0.2330, -0.0965,  0.2443, -0.2808,  0.3004,  0.2748
1492035422.5624089241,1492035422.5648388863, -0.2330, -0.0965,  0.2443, -0.2808,  0.3004,  0.2748
1492035422.5652160645,1492035422.5676419735, -0.2330, -0.0965,  0.2443, -0.2808,  0.3004,  0.2748
1492035422.5680189133,1492035422.5704519749, -0.2330, -0.0965,  0.2443, -0.2808,  0.3004,  0.1954
1492035422.5708270073,1492035422.5732469559, -0.2330, -0.0965,  0.2443, -0.1757,  0.2716,  0.1954
1492035422.5736238956,1492035422.5760500431, -0.2330, -0.0965,  0.2443, -0.1757,  0.2716,  0.1954
1492035422.5764279366,1492035422.5788478851, -0.2330, -0.0965,  0.2443, -0.1757,  0.2716,  0.1954
1492035422.5792250633,1492035422.5816600323, -0.0926, -0.0735,  0.1668, -0.0892,  0.2348,  0.1210
1492035422.5820369720,1492035422.5844669342, -0.0926, -0.0735,  0.1668, -0.0892,  0.2348,  0.1210
1492035422.5848419666,1492035422.5872631073, -0.0926, -0.0735,  0.1668, -0.0892,  0.2348,  0.1210
1492035422.5876400471,1492035422.5900759697, -0.0926, -0.0735,  0.1668, -0.0892,  0.2348,  0.1210
1492035422.5904519558,1492035422.5928800106, -0.0926, -0.0735,  0.1668, -0.0349,  0.1816,  0.0280
1492035422.5932569504,1492035422.5956850052, -0.0926, -0.0735,  0.1668, -0.0349,  0.1816,  0.0280
1492035422.5960609913,1492035422.5984919071, -0.0926, -0.0735,  0.1668, -0.0349,  0.1816,  0.0280
1492035422.5988669395,1492035422.6012430191, -0.0423, -0.1571,  0.0765, -0.0349,  0.1816, -0.0657
1492035422.6016120911,1492035422.6039121151, -0.0423, -0.1571,  0.0765, -0.0199,  0.1240, -0.0700
1492035422.6042830944,1492035422.6065878868, -0.0423, -0.1571,  0.0765, -0.0199,  0.1240, -0.0700
1492035422.6069569588,1492035422.6092510223, -0.0423, -0.1571,  0.0765, -0.0199,  0.1240, -0.0700
1492035422.6096200943,1492035422.6119620800, -0.0423, -0.1571,  0.0765, -0.0199,  0.0693, -0.1532
1492035422.6123290062,1492035422.6146309376, -0.0423, -0.1571,  0.0765, -0.0464,  0.0664, -0.1532
1492035422.6149990559,1492035422.6172950268, -0.0423, -0.1571,  0.0765, -0.0464,  0.0664, -0.1532
1492035422.6177699566,1492035422.6201829910, -0.0423, -0.1501,  0.0468, -0.0464,  0.0664, -0.1532
1492035422.6205689907,1492035422.6230020523, -0.0150, -0.1501,  0.0468, -0.0966,  0.0084, -0.2258
1492035422.6233808994,1492035422.6257979870, -0.0150, -0.1501,  0.0468, -0.0966,  0.0084, -0.2258
1492035422.6261761189,1492035422.6285929680, -0.0150, -0.1501,  0.0468, -0.0966,  0.0084, -0.2258
1492035422.6289720535,1492035422.6314289570, -0.0150, -0.1501,  0.0468, -0.0966,  0.0084, -0.2258
1492035422.6318049431,1492035422.6342189312, -0.0150, -0.1501,  0.0468, -0.1557, -0.0468, -0.2906
1492035422.6345949173,1492035422.6370139122, -0.0150, -0.1501,  0.0468, -0.1557, -0.0468, -0.2906
1492035422.6373920441,1492035422.6398060322, -0.0150, -0.0845,  0.0483, -0.1557, -0.0468, -0.2906
1492035422.6401929855,1492035422.6426079273, -0.0399, -0.0845,  0.0483, -0.1557, -0.0468, -0.3483
1492035422.6429820061,1492035422.6453990936, -0.0399, -0.0845,  0.0483, -0.2072, -0.0952, -0.3483
1492035422.6457769871,1492035422.6481900215, -0.0399, -0.0845,  0.0483, -0.2072, -0.0952, -0.3483
1492035422.6485669613,1492035422.6510260105, -0.0399, -0.0845,  0.0483, -0.2072, -0.0952, -0.3483
1492035422.6514029503,1492035422.6538178921, -0.0399, -0.0845,  0.0483, -0.2182, -0.1316, -0.3978
1492035422.6541941166,1492035422.6566100121, -0.0399, -0.0845,  0.0483, -0.2182, -0.1316, -0.3978
1492035422.6569859982,1492035422.6593990326, -0.0399, -0.0142,  0.0735, -0.2182, -0.1316, -0.3978
1492035422.6597769260,1492035422.6622369289, -0.0683, -0.0096,  0.0735, -0.2182, -0.1316, -0.3978
1492035422.6626129150,1492035422.6650280952, -0.0683, -0.0096,  0.0735, -0.1977, -0.1613, -0.4440
1492035422.6654050350,1492035422.6678230762, -0.0683, -0.0096,  0.0735, -0.1977, -0.1613, -0.4440
1492035422.6682000160,1492035422.6706340313, -0.0683, -0.0096,  0.0735, -0.1977, -0.1613, -0.4440
1492035422.6710090637,1492035422.6734309196, -0.0683, -0.0096,  0.0735, -0.1977, -0.1613, -0.4849
1492035422.6738069057,1492035422.6762330532, -0.0683, -0.0096,  0.0735, -0.1719, -0.1873, -0.4849
1492035422.6766099930,1492035422.6790339947, -0.0683, -0.0096,  0.0787, -0.1719, -0.1873, -0.4849
1492035422.6794118881,1492035422.6818490028, -0.0931,  0.0052,  0.0787, -0.1719, -0.1873, -0.4849
1492035422.6822249889,1492035422.6846458912, -0.0931,  0.0052,  0.0787, -0.1471, -0.2087, -0.5203
1492035422.6850221157,1492035422.6874489784, -0.0931,  0.0052,  0.0787, -0.1471, -0.2087, -0.5203
1492035422.6878280640,1492035422.6902649403, -0.0931,  0.0052,  0.0787, -0.1471, -0.2087, -0.5203
1492035422.6906421185,1492035422.6930630207, -0.0931,  0.0052,  0.0787, -0.1471, -0.2087, -0.5203
1492035422.6934380531,1492035422.6958630085, -0.0931,  0.0052,  0.0787, -0.1234, -0.2304, -0.5500
1492035422.6962409019,1492035422.6986639500, -0.0931,  0.0052,  0.0631, -0.1234, -0.2304, -0.5500
1492035422.6990439892,1492035422.7014839649, -0.0897,  0.0376,  0.0656, -0.1234, -0.2304, -0.5500
1492035422.7018599510,1492035422.7042889595, -0.0897,  0.0376,  0.0656, -0.1234, -0.2304, -0.5742
1492035422.7046649456,1492035422.7070879936, -0.0897,  0.0376,  0.0656, -0.0868, -0.2542, -0.5742
1492035422.7074649334,1492035422.7098910809, -0.0897,  0.0376,  0.0656, -0.0868, -0.2542, -0.5742
1492035422.7102589607,1492035422.7125558853, -0.0897,  0.0376,  0.0656, -0.0868, -0.2542, -0.5742
1492035422.7129230499,1492035422.7152259350, -0.0897,  0.0376,  0.0656, -0.0399, -0.2701, -0.5910
1492035422.7155940533,1492035422.7179009914, -0.0897,  0.0376,  0.0656, -0.0417, -0.2701, -0.5910
1492035422.7182710171,1492035422.7206549644, -0.0840,  0.0569,  0.0336, -0.0417, -0.2701, -0.5910
1492035422.7210330963,1492035422.7234580517, -0.0840,  0.0569,  0.0336, -0.0417, -0.2701, -0.5910
1492035422.7238349915,1492035422.7262609005, -0.0840,  0.0569,  0.0336,  0.0008, -0.2836, -0.6017
1492035422.7266380787,1492035422.7290630341, -0.0840,  0.0569,  0.0336,  0.0008, -0.2836, -0.6017
1492035422.7294390202,1492035422.7318880558, -0.0840,  0.0569,  0.0336,  0.0008, -0.2836, -0.6017
1492035422.7322640419,1492035422.7346858978, -0.0840,  0.0569,  0.0336,  0.0008, -0.2836, -0.6017
1492035422.7351698875,1492035422.7375969887, -0.0840,  0.0569,  0.0336,  0.0235, -0.2937, -0.6073
1492035422.7379729748,1492035422.7404448986, -0.1080,  0.0801, -0.0035,  0.0235, -0.2937, -0.6073
1492035422.7408239841,1492035422.7432529926, -0.1080,  0.0801, -0.0035,  0.0235, -0.2937, -0.6073
1492035422.7436308861,1492035422.7460539341, -0.1080,  0.0801, -0.0035,  0.0235, -0.3051, -0.6070
1492035422.7464320660,1492035422.7488639355, -0.1080,  0.0801, -0.0035,  0.0293, -0.3051, -0.6070
1492035422.7492411137,1492035422.7516660690, -0.1080,  0.0801, -0.0035,  0.0293, -0.3051, -0.6070
1492035422.7520430088,1492035422.7544689178, -0.1080,  0.0801, -0.0035,  0.0293, -0.3051, -0.6070
1492035422.7548470497,1492035422.7572669983, -0.1080,  0.0801, -0.0035,  0.0395, -0.3105, -0.6016
1492035422.7576460838,1492035422.7600860596, -0.1735,  0.1576, -0.0126,  0.0395, -0.3105, -0.6016
1492035422.7604570389,1492035422.7627549171, -0.1735,  0.1576, -0.0126,  0.0395, -0.3105, -0.6016
1492035422.7631239891,1492035422.7654230595, -0.1735,  0.1576, -0.0126,  0.0395, -0.3105, -0.6016
1492035422.7657918930,1492035422.7680850029, -0.1735,  0.1576, -0.0126,  0.0656, -0.3095, -0.5948
1492035422.7684519291,1492035422.7708470821, -0.1735,  0.1576, -0.0126,  0.0656, -0.3095, -0.5948
1492035422.7712249756,1492035422.7736499310, -0.1735,  0.1576, -0.0126,  0.0656, -0.3095, -0.5948
1492035422.7740259171,1492035422.7764539719, -0.1735,  0.1576, -0.0126,  0.0656, -0.3095, -0.5846
1492035422.7768309116,1492035422.7792530060, -0.2551,  0.2237, -0.0162,  0.1102, -0.3053, -0.5846
1492035422.7796289921,1492035422.7820649147, -0.2551,  0.2237, -0.0162,  0.1102, -0.3053, -0.5846
1492035422.7824409008,1492035422.7848649025, -0.2551,  0.2237, -0.0162,  0.1102, -0.3053, -0.5846
1492035422.7852430344,1492035422.7876660824, -0.2551,  0.2237, -0.0162,  0.1339, -0.2965, -0.5494
1492035422.7880420685,1492035422.7904789448, -0.2551,  0.2237, -0.0162,  0.1339, -0.2965, -0.5494
1492035422.7908539772,1492035422.7932789326, -0.2551,  0.2237, -0.0162,  0.1339, -0.2965, -0.5494
1492035422.7936549187,1492035422.7960801125, -0.2551,  0.2237, -0.0162,  0.1339, -0.2965, -0.5494
1492035422.7964560986,1492035422.7988810539, -0.3665,  0.3385, -0.1084,  0.1168, -0.2749, -0.4724
1492035422.7992579937,1492035422.8016929626, -0.3665,  0.3385, -0.1084,  0.1168, -0.2749, -0.4724
1492035422.8020689487,1492035422.8044919968, -0.3665,  0.3385, -0.1084,  0.1168, -0.2749, -0.4724
1492035422.8048689365,1492035422.8072938919, -0.3665,  0.3385, -0.1084,  0.1168, -0.2749, -0.3571
1492035422.8076689243,1492035422.8101019859, -0.3665,  0.3385, -0.1084,  0.0887, -0.2310, -0.3571
1492035422.8104701042,1492035422.8127739429, -0.3665,  0.3385, -0.1084,  0.0887, -0.2310, -0.3571
1492035422.8131439686,1492035422.8154420853, -0.3665,  0.3385, -0.1084,  0.0887, -0.2310, -0.3571
1492035422.8158130646,1492035422.8181080818, -0.3665,  0.5071, -0.1540,  0.0966, -0.1826, -0.2391
1492035422.8184759617,1492035422.8208639622, -0.3661,  0.5071, -0.1540,  0.1011, -0.1826, -0.2391
1492035422.8212409019,1492035422.8236660957, -0.3661,  0.5071, -0.1540,  0.1011, -0.1826, -0.2391
1492035422.8240408897,1492035422.8264679909, -0.3661,  0.5071, -0.1540,  0.1011, -0.1826, -0.2391
1492035422.8268470764,1492035422.8292689323, -0.3661,  0.5071, -0.1540,  0.1379, -0.1432, -0.1588
1492035422.8296449184,1492035422.8320810795, -0.3661,  0.5071, -0.1540,  0.1379, -0.1432, -0.1588
1492035422.8324549198,1492035422.8348829746, -0.3661,  0.5071, -0.1540,  0.1379, -0.1432, -0.1588
1492035422.8352589607,1492035422.8376839161, -0.3661,  0.5071, -0.2271,  0.1379, -0.1432, -0.1588
1492035422.8380579948,1492035422.8404929638, -0.3584,  0.5051, -0.2271,  0.1635, -0.1002, -0.1048
1492035422.8408689499,1492035422.8432970047, -0.3584,  0.5051, -0.2271,  0.1635, -0.1002, -0.1048
1492035422.8436739445,1492035422.8460988998, -0.3584,  0.5051, -0.2271,  0.1635, -0.1002, -0.1048
1492035422.8464760780,1492035422.8489060402, -0.3584,  0.5051, -0.2271,  0.1635, -0.0401, -0.0093
1492035422.8492829800,1492035422.8517639637, -0.3584,  0.5051, -0.2271,  0.1634, -0.0401, -0.0093
1492035422.8522520065,1492035422.8546769619, -0.3584,  0.5051, -0.2271,  0.1634, -0.0401, -0.0093
1492035422.8550570011,1492035422.8574800491, -0.3584,  0.5051, -0.2157,  0.1634, -0.0401, -0.0093
1492035422.8578569889,1492035422.8602840900, -0.2107,  0.3878, -0.2157,  0.1519,  0.0174,  0.0785
1492035422.8606519699,1492035422.8629550934, -0.2107,  0.3878, -0.2157,  0.1519,  0.0174,  0.0785
1492035422.8633239269,1492035422.8656239510, -0.2107,  0.3878, -0.2157,  0.1519,  0.0174,  0.0785
1492035422.8659920692,1492035422.8682909012, -0.2107,  0.3878, -0.2157,  0.1519,  0.0174,  0.0785
1492035422.8686599731,1492035422.8710329533, -0.2107,  0.3878, -0.2157,  0.1231,  0.0394,  0.1308
1492035422.8714020252,1492035422.8737039566, -0.2107,  0.3878, -0.2157,  0.1231,  0.0394,  0.1308
1492035422.8740720749,1492035422.8763680458, -0.2107,  0.3878, -0.2157,  0.1231,  0.0394,  0.1308
1492035422.8767371178,1492035422.8790318966, -0.0958,  0.3084, -0.3060,  0.1231,  0.0394,  0.2089
1492035422.8794000149,1492035422.8818380833, -0.0958,  0.3084, -0.3060,  0.0745,  0.1425,  0.2077
1492035422.8822150230,1492035422.8846430779, -0.0958,  0.3084, -0.3060,  0.0745,  0.1425,  0.2077
1492035422.8850200176,1492035422.8874490261, -0.0958,  0.3084, -0.3060,  0.0745,  0.1425,  0.2077
1492035422.8878269196,1492035422.8902630806, -0.0958,  0.3084, -0.3060, -0.0117,  0.2008,  0.3051
1492035422.8906390667,1492035422.8930621147, -0.0958,  0.3084, -0.3060, -0.0117,  0.2008,  0.3051
1492035422.8934390545,1492035422.8958699703, -0.0958,  0.3084, -0.3060, -0.0117,  0.2008,  0.3051
1492035422.8962469101,1492035422.8986730576, -0.2840,  0.0636,  0.1328, -0.0117,  0.2008,  0.3051
1492035422.8990490437,1492035422.9014859200, -0.2840,  0.0636,  0.1328, -0.1412, -0.0670,  0.1693
1492035422.9018640518,1492035422.9042890072, -0.2840,  0.0636,  0.1328, -0.1412, -0.0670,  0.1693
1492035422.9046659470,1492035422.9070949554, -0.2840,  0.0636,  0.1328, -0.1412, -0.0670,  0.1693
1492035422.9074718952,1492035422.9098970890, -0.2840,  0.0636,  0.1328, -0.1412, -0.0670,  0.1224
1492035422.9102659225,1492035422.9125699997, -0.2840,  0.0636,  0.1328, -0.0628, -0.1315,  0.1195
1492035422.9129390717,1492035422.9152340889, -0.2840,  0.0636,  0.1328, -0.0628, -0.1315,  0.1195
1492035422.9156019688,1492035422.9179039001, -0.5684, -0.1869,  0.2017, -0.0628, -0.1315,  0.1195
1492035422.9182729721,1492035422.9206640720, -0.5684, -0.1869,  0.2017, -0.0628,  0.1028,  0.3347
1492035422.9210410118,1492035422.9234650135, -0.5684, -0.1869,  0.2017,  0.0893,  0.1092,  0.3347
1492035422.9238409996,1492035422.9262700081, -0.5684, -0.1869,  0.2017,  0.0893,  0.1092,  0.3347
1492035422.9266479015,1492035422.9290730953, -0.5684, -0.1869,  0.2017,  0.0893,  0.1092,  0.3347
1492035422.9294509888,1492035422.9318830967, -0.5684, -0.1869,  0.2017, -0.0827,  0.0511,  0.5014
1492035422.9322590828,1492035422.9346849918, -0.5684, -0.1869,  0.2017, -0.0827,  0.0511,  0.5014
1492035422.9350619316,1492035422.9374859333, -0.1621,  0.3173, -0.0850, -0.0827,  0.0511,  0.5014
1492035422.9378631115,1492035422.9402980804, -0.1621,  0.3173, -0.0850, -0.0827,  0.0511,  0.5014
1492035422.9406740665,1492035422.9430980682, -0.1621,  0.3173, -0.0850, -0.0981,  0.0785,  0.6171
1492035422.9434731007,1492035422.9459009171, -0.1621,  0.3173, -0.0850, -0.0981,  0.0785,  0.6171
1492035422.9462819099,1492035422.9487090111, -0.1621,  0.3173, -0.0850, -0.0981,  0.0785,  0.6171
1492035422.9490849972,1492035422.9515209198, -0.1621,  0.3173, -0.0850, -0.0981,  0.1020,  0.4622
1492035422.9518990517,1492035422.9543220997, -0.1621,  0.3173, -0.0850,  0.0152,  0.1062,  0.4622
1492035422.9546990395,1492035422.9571230412, -0.1621,  0.1588, -0.1991,  0.0152,  0.1062,  0.4622
1492035422.9574999809,1492035422.9599280357, -0.1583,  0.1588, -0.1991,  0.0152,  0.1062,  0.4622
1492035422.9603469372,1492035422.9626479149, -0.1583,  0.1588, -0.1991,  0.1510,  0.0901,  0.3056
1492035422.9630150795,1492035422.9653160572, -0.1583,  0.1588, -0.1991,  0.1510,  0.0901,  0.3056
1492035422.9656848907,1492035422.9679830074, -0.1583,  0.1588, -0.1991,  0.1510,  0.0901,  0.3056
1492035422.9684550762,1492035422.9708371162, -0.1583,  0.1588, -0.1991,  0.1510,  0.0901,  0.3056
1492035422.9712119102,1492035422.9736249447, -0.1583,  0.1588, -0.1991,  0.1129,  0.0197,  0.2440
1492035422.9739999771,1492035422.9764521122, -0.1583,  0.1588,  0.0336,  0.1129,  0.0197,  0.2440
1492035422.9768300056,1492035422.9792408943, -0.1665,  0.0559,  0.0336,  0.1129,  0.0197,  0.2440
1492035422.9796159267,1492035422.9820530415, -0.1665,  0.0559,  0.0336,  0.1129,  0.0197,  0.2353
1492035422.9824259281,1492035422.9848198891, -0.1665,  0.0559,  0.0336,  0.1415,  0.0699,  0.2353
1492035422.9851920605,1492035422.9876608849, -0.1665,  0.0559,  0.0336,  0.1415,  0.0699,  0.2353
1492035422.9880359173,1492035422.9904561043, -0.1665,  0.0559,  0.0336,  0.1415,  0.0699,  0.2353
1492035422.9908299446,1492035422.9932169914, -0.1665,  0.0559,  0.0336,  0.1578,  0.0999,  0.2259
1492035422.9935901165,1492035422.9960548878, -0.1665,  0.0559, -0.0211,  0.1578,  0.0999,  0.2259
1492035422.9964320660,1492035422.9988529682, -0.2326,  0.1256, -0.0167,  0.1578,  0.0999,  0.2259
1492035422.9992289543,1492035423.0015780926, -0.2326,  0.1256, -0.0167,  0.1578,  0.0999,  0.2259
1492035423.0019469261,1492035423.0042450428, -0.2326,  0.1256, -0.0167,  0.2555,  0.1900,  0.1908
1492035423.0046141148,1492035423.0070030689, -0.2326,  0.1256, -0.0167,  0.2555,  0.1900,  0.1908
1492035423.0073730946,1492035423.0096700191, -0.2326,  0.1256, -0.0167,  0.2555,  0.1900,  0.1908
1492035423.0101180077,1492035423.0124230385, -0.2326,  0.1256, -0.0167,  0.2555,  0.1900,  0.1908
1492035423.0127930641,1492035423.0151200294, -0.2326,  0.1256, -0.0167,  0.2181,  0.1196,  0.1699
1492035423.0154891014,1492035423.0177869797, -0.2223,  0.0913, -0.0555,  0.2181,  0.1196,  0.1699
1492035423.0181560516,1492035423.0204629898, -0.2223,  0.0913, -0.0555,  0.2181,  0.1196,  0.1699
1492035423.0208320618,1492035423.0231289864, -0.2223,  0.0913, -0.0555,  0.2181,  0.1196,  0.1480
1492035423.0234990120,1492035423.0257959366, -0.2223,  0.0913, -0.0555,  0.1885,  0.1088,  0.1480
1492035423.0261650085,1492035423.0284619331, -0.2223,  0.0913, -0.0555,  0.1885,  0.1088,  0.1480
1492035423.0288310051,1492035423.0312490463, -0.2223,  0.0913, -0.0555,  0.1885,  0.1088,  0.1480
1492035423.0316250324,1492035423.0340509415, -0.2223,  0.0913, -0.0555,  0.1885,  0.0899,  0.1348
1492035423.0344278812,1492035423.0368549824, -0.2759,  0.1399, -0.0067,  0.1518,  0.0899,  0.1348
1492035423.0372309685,1492035423.0396580696, -0.2759,  0.1399, -0.0067,  0.1518,  0.0899,  0.1348
1492035423.0400450230,1492035423.0424709320, -0.2759,  0.1399, -0.0067,  0.1518,  0.0899,  0.1348
1492035423.0428490639,1492035423.0452749729, -0.2759,  0.1399, -0.0067,  0.1603,  0.1083,  0.1121
1492035423.0456509590,1492035423.0480771065, -0.2759,  0.1399, -0.0067,  0.1603,  0.1083,  0.1121
1492035423.0484559536,1492035423.0508990288, -0.2759,  0.1399, -0.0067,  0.1603,  0.1083,  0.1121
1492035423.0512759686,1492035423.0537030697, -0.2759,  0.1399, -0.0067,  0.1603,  0.1083,  0.1121
1492035423.0540819168,1492035423.0565130711, -0.4078,  0.1121,  0.0495,  0.1706,  0.1002,  0.0731
1492035423.0568890572,1492035423.0593140125, -0.4078,  0.1121,  0.0495,  0.1706,  0.1002,  0.0731
1492035423.0596899986,1492035423.0620260239, -0.4078,  0.1121,  0.0495,  0.1706,  0.1002,  0.0731
1492035423.0623960495,1492035423.0646948814, -0.4078,  0.1121,  0.0495,  0.1706,  0.1080,  0.0105
1492035423.0650649071,1492035423.0673658848, -0.4078,  0.1121,  0.0495,  0.1862,  0.1069,  0.0105
1492035423.0677349567,1492035423.0700678825, -0.4078,  0.1121,  0.0495,  0.1862,  0.1069,  0.0105
1492035423.0704441071,1492035423.0728530884, -0.4078,  0.1121,  0.0495,  0.1862,  0.1069,  0.0105
1492035423.0732290745,1492035423.0756380558, -0.4078,  0.0262,  0.1097,  0.1561,  0.1016, -0.0161
1492035423.0760130882,1492035423.0784220695, -0.4597,  0.0309,  0.1097,  0.1561,  0.1016, -0.0161
1492035423.0787971020,1492035423.0812048912, -0.4597,  0.0309,  0.1097,  0.1561,  0.1016, -0.0161
1492035423.0815811157,1492035423.0839679241, -0.4597,  0.0309,  0.1097,  0.1561,  0.1016, -0.0161
1492035423.0844519138,1492035423.0868399143, -0.4597,  0.0309,  0.1097,  0.1328,  0.1170, -0.0041
1492035423.0872139931,1492035423.0896010399, -0.4597,  0.0309,  0.1097,  0.1328,  0.1170, -0.0041
1492035423.0900619030,1492035423.0924870968, -0.4597,  0.0309,  0.1097,  0.1328,  0.1170, -0.0041
1492035423.0928668976,1492035423.0952880383, -0.4597,  0.0309,  0.1851,  0.1328,  0.1170,  0.0564
1492035423.0956649780,1492035423.0980899334, -0.3927, -0.0862,  0.1851,  0.0577,  0.1174,  0.0564
1492035423.0984671116,1492035423.1009020805, -0.3927, -0.0862,  0.1851,  0.0577,  0.1174,  0.0564
1492035423.1012799740,1492035423.1037020683, -0.3927, -0.0862,  0.1851,  0.0577,  0.1174,  0.0564
1492035423.1040799618,1492035423.1065039635, -0.3927, -0.0862,  0.1851,  0.0229,  0.1073,  0.1061
1492035423.1068799496,1492035423.1092998981, -0.3927, -0.0862,  0.1851,  0.0229,  0.1073,  0.1061
1492035423.1096749306,1492035423.1120200157, -0.3927, -0.0862,  0.1851,  0.0229,  0.1073,  0.1061
1492035423.1123909950,1492035423.1146919727, -0.3927, -0.0862,  0.2164,  0.0229,  0.1073,  0.1061
1492035423.1150629520,1492035423.1173629761, -0.2763, -0.2224,  0.2117,  0.0613,  0.0903,  0.0852
1492035423.1177320480,1492035423.1200809479, -0.2763, -0.2224,  0.2117,  0.0613,  0.0903,  0.0852
1492035423.1204500198,1492035423.1227519512, -0.2763, -0.2224,  0.2117,  0.0613,  0.0903,  0.0852
1492035423.1231191158,1492035423.1254138947, -0.2763, -0.2224,  0.2117,  0.0613,  0.0903,  0.0852
1492035423.1257820129,1492035423.1280829906, -0.2763, -0.2224,  0.2117,  0.1393,  0.0556,  0.0554
1492035423.1284530163,1492035423.1308441162, -0.2763, -0.2224,  0.2117,  0.1393,  0.0556,  0.0554
1492035423.1312189102,1492035423.1336469650, -0.2763, -0.2224,  0.2117,  0.1393,  0.0556,  0.0554
1492035423.1340219975,1492035423.1364459991, -0.3152,  0.0255,  0.0059,  0.1393,  0.0556,  0.0412
1492035423.1368219852,1492035423.1392469406, -0.3152,  0.0255,  0.0059,  0.2407,  0.0342,  0.0412
1492035423.1396250725,1492035423.1420609951, -0.3152,  0.0255,  0.0059,  0.2407,  0.0342,  0.0412
1492035423.1424388885,1492035423.1448640823, -0.3152,  0.0255,  0.0059,  0.2407,  0.0342,  0.0412
1492035423.1452410221,1492035423.1476678848, -0.3152,  0.0255,  0.0059,  0.2251,  0.1523,  0.1080
1492035423.1480479240,1492035423.1504800320, -0.3152,  0.0255,  0.0059,  0.2251,  0.1523,  0.1080
1492035423.1508579254,1492035423.1532809734, -0.3152,  0.0255,  0.0059,  0.2251,  0.1523,  0.1080
1492035423.1536569595,1492035423.1560840607, -0.1991,  0.2814,  0.0158,  0.2251,  0.1523,  0.1080
1492035423.1564619541,1492035423.1588900089, -0.1991,  0.2814,  0.0158,  0.0177,  0.1426,  0.2273
1492035423.1592669487,1492035423.1616210938, -0.1991,  0.2814,  0.0158,  0.0177,  0.1426,  0.2273
1492035423.1619889736,1492035423.1642971039, -0.1991,  0.2814,  0.0158,  0.0177,  0.1426,  0.2273
1492035423.1646640301,1492035423.1669669151, -0.1991,  0.2814,  0.0158,  0.0177,  0.1426,  0.2273
1492035423.1673369408,1492035423.1696360111, -0.1991,  0.2814,  0.0158, -0.0469,  0.1278,  0.2110
1492035423.1700448990,1492035423.1724689007, -0.1991,  0.2814,  0.0158, -0.0469,  0.1278,  0.2110
1492035423.1728470325,1492035423.1752729416, -0.2303, -0.1605,  0.1346, -0.0469,  0.1278,  0.2110
1492035423.1756470203,1492035423.1780738831, -0.2320, -0.1605,  0.1346, -0.0469,  0.1319,  0.1660
1492035423.1784501076,1492035423.1808819771, -0.2320, -0.1605,  0.1346,  0.0244,  0.1319,  0.1660
1492035423.1812589169,1492035423.1836869717, -0.2320, -0.1605,  0.1346,  0.0244,  0.1319,  0.1660
1492035423.1840620041,1492035423.1864869595, -0.2320, -0.1605,  0.1346,  0.0244,  0.1319,  0.1660
1492035423.1868638992,1492035423.1892890930, -0.2320, -0.1605,  0.1346,  0.1306,  0.1669,  0.2535
1492035423.1896629333,1492035423.1921000481, -0.2320, -0.1605,  0.1346,  0.1306,  0.1669,  0.2535
1492035423.1924760342,1492035423.1949019432, -0.2320, -0.0895, -0.0644,  0.1306,  0.1669,  0.2535
1492035423.1952788830,1492035423.1977059841, -0.2110, -0.0895, -0.0644,  0.1306,  0.1669,  0.2535
1492035423.1981821060,1492035423.2006189823, -0.2110, -0.0895, -0.0644,  0.0215,  0.2042,  0.3214
1492035423.2009899616,1492035423.2032880783, -0.2110, -0.0895, -0.0644,  0.0215,  0.2042,  0.3214
1492035423.2036559582,1492035423.2059578896, -0.2110, -0.0895, -0.0644,  0.0215,  0.2042,  0.3214
1492035423.2063269615,1492035423.2086279392, -0.2110, -0.0895, -0.0644,  0.0215,  0.2277,  0.3161
1492035423.2089970112,1492035423.2113749981, -0.2110, -0.0895, -0.0644, -0.1494,  0.2339,  0.3161
1492035423.2117519379,1492035423.2141819000, -0.2110, -0.0895,  0.1577, -0.1494,  0.2339,  0.3161
1492035423.2145600319,1492035423.2169880867, -0.1707, -0.1683,  0.1577, -0.1494,  0.2339,  0.3161
1492035423.2173631191,1492035423.2197909355, -0.1707, -0.1683,  0.1577, -0.1017,  0.2054,  0.2859
1492035423.2201759815,1492035423.2226030827, -0.1707, -0.1683,  0.1577, -0.1017,  0.2054,  0.2859
1492035423.2229781151,1492035423.2254009247, -0.1707, -0.1683,  0.1577, -0.1017,  0.2054,  0.2859
1492035423.2257759571,1492035423.2282059193, -0.1707, -0.1683,  0.1577, -0.1017,  0.2054,  0.2859
1492035423.2285830975,1492035423.2310619354, -0.1707, -0.1683,  0.1577, -0.0374,  0.1751,  0.3077
1492035423.2314391136,1492035423.2338659763, -0.1707, -0.1683,  0.0561, -0.0374,  0.1751,  0.3077
1492035423.2342441082,1492035423.2366669178, -0.3655, -0.1660,  0.0562, -0.0374,  0.1751,  0.3077
1492035423.2370440960,1492035423.2394700050, -0.3655, -0.1660,  0.0562, -0.0374,  0.1751,  0.3435
1492035423.2398459911,1492035423.2422850132, -0.3655, -0.1660,  0.0562, -0.0260,  0.1983,  0.3435
1492035423.2426619530,1492035423.2450859547, -0.3655, -0.1660,  0.0562, -0.0260,  0.1983,  0.3435
1492035423.2454628944,1492035423.2478859425, -0.3655, -0.1660,  0.0562, -0.0260,  0.1983,  0.3435
1492035423.2482609749,1492035423.2506740093, -0.3655, -0.1660,  0.0562,  0.0124,  0.2161,  0.3478
1492035423.2510440350,1492035423.2533509731, -0.3655, -0.1660,  0.0562,  0.0124,  0.2161,  0.3478
1492035423.2537219524,1492035423.2560229301, -0.3163, -0.2076,  0.1368,  0.0124,  0.2161,  0.3478
1492035423.2563929558,1492035423.2586910725, -0.3163, -0.2076,  0.1368,  0.0124,  0.2161,  0.3478
1492035423.2590610981,1492035423.2614169121, -0.3163, -0.2076,  0.1368,  0.0482,  0.2130,  0.3282
1492035423.2617850304,1492035423.2640829086, -0.3163, -0.2076,  0.1368,  0.0482,  0.2130,  0.3282
1492035423.2644510269,1492035423.2667429447, -0.3163, -0.2076,  0.1368,  0.0482,  0.2130,  0.3282
1492035423.2671110630,1492035423.2694129944, -0.3163, -0.2076,  0.1368,  0.0482,  0.2130,  0.3282
1492035423.2697820663,1492035423.2722530365, -0.3163, -0.2076,  0.1368,  0.0786,  0.2082,  0.2975
1492035423.2726290226,1492035423.2750589848, -0.3080, -0.1212,  0.0856,  0.0786,  0.2082,  0.2975
1492035423.2754371166,1492035423.2778630257, -0.3080, -0.1212,  0.0856,  0.0786,  0.2082,  0.2975
1492035423.2782399654,1492035423.2806739807, -0.3080, -0.1212,  0.0856,  0.0786,  0.2082,  0.2656
1492035423.2810521126,1492035423.2834920883, -0.3080, -0.1212,  0.0856,  0.1117,  0.2282,  0.2656
1492035423.2838690281,1492035423.2862839699, -0.3080, -0.1212,  0.0856,  0.1117,  0.2282,  0.2656
1492035423.2866590023,1492035423.2890729904, -0.3080, -0.1212,  0.0856,  0.1117,  0.2282,  0.2656
1492035423.2894520760,1492035423.2918510437, -0.3080, -0.1212,  0.0856,  0.1231,  0.2619,  0.1929
1492035423.2922248840,1492035423.2947089672, -0.3920, -0.1155,  0.0378,  0.1231,  0.2619,  0.1929
1492035423.2950859070,1492035423.2974989414, -0.3920, -0.1155,  0.0378,  0.1231,  0.2619,  0.1929
1492035423.2978739738,1492035423.3002860546, -0.3920, -0.1155,  0.0378,  0.1231,  0.2619,  0.1929
1492035423.3006570339,1492035423.3029570580, -0.3920, -0.1155,  0.0378,  0.0627,  0.2284,  0.1220
1492035423.3033249378,1492035423.3056540489, -0.3920, -0.1155,  0.0378,  0.0627,  0.2284,  0.1220
1492035423.3060240746,1492035423.3083269596, -0.3920, -0.1155,  0.0378,  0.0627,  0.2284,  0.1220
1492035423.3086960316,1492035423.3110909462, -0.3920, -0.1155,  0.0378,  0.0627,  0.2284,  0.0829
1492035423.3114678860,1492035423.3138909340, -0.2826, -0.0531,  0.0577,  0.0027,  0.1862,  0.0791
1492035423.3143789768,1492035423.3168029785, -0.2852, -0.0531,  0.0577,  0.0027,  0.1862,  0.0791
1492035423.3171789646,1492035423.3195979595, -0.2852, -0.0531,  0.0577,  0.0027,  0.1862,  0.0791
1492035423.3200221062,1492035423.3224430084, -0.2852, -0.0531,  0.0577, -0.0578,  0.1799,  0.0528
1492035423.3228199482,1492035423.3252420425, -0.2852, -0.0531,  0.0577, -0.0578,  0.1799,  0.0528
1492035423.3256158829,1492035423.3280339241, -0.2852, -0.0531,  0.0577, -0.0578,  0.1799,  0.0528
1492035423.3284089565,1492035423.3308420181, -0.2852, -0.0531,  0.0577, -0.0578,  0.1799,  0.0528
1492035423.3312180042,1492035423.3336439133, -0.2852,  0.0053, -0.0150, -0.1073,  0.1611,  0.0064
1492035423.3340249062,1492035423.3364470005, -0.1837,  0.0053, -0.0150, -0.1073,  0.1611,  0.0064
1492035423.3368239403,1492035423.3392479420, -0.1837,  0.0053, -0.0150, -0.1073,  0.1611,  0.0064
1492035423.3396279812,1492035423.3420639038, -0.1837,  0.0053, -0.0150, -0.1073,  0.1611, -0.0483
1492035423.3424429893,1492035423.3448669910, -0.1837,  0.0053, -0.0150, -0.1342,  0.1194, -0.0510
1492035423.3452439308,1492035423.3476738930, -0.1837,  0.0053, -0.0150, -0.1342,  0.1194, -0.0510
1492035423.3480520248,1492035423.3504700661, -0.1837,  0.0053, -0.0150, -0.1342,  0.1194, -0.0510
1492035423.3508400917,1492035423.3531448841, -0.1837,  0.0530,  0.0010, -0.1263,  0.0596, -0.1421
1492035423.3535161018,1492035423.3558180332, -0.0995,  0.0530,  0.0010, -0.1314,  0.0596, -0.1421
1492035423.3561880589,1492035423.3584840298, -0.0995,  0.0530,  0.0010, -0.1314,  0.0596, -0.1421
1492035423.3588540554,1492035423.3612689972, -0.0995,  0.0530,  0.0010, -0.1314,  0.0596, -0.1421
1492035423.3616480827,1492035423.3640749454, -0.0995,  0.0530,  0.0010, -0.1194,  0.0099, -0.2364
1492035423.3644540310,1492035423.3668799400, -0.0995,  0.0530,  0.0010, -0.1194,  0.0099, -0.2364
1492035423.3672590256,1492035423.3696849346, -0.0995,  0.0530,  0.0010, -0.1194,  0.0099, -0.2364
1492035423.3700740337,1492035423.3725059032, -0.0995,  0.0530,  0.0088, -0.1194,  0.0099, -0.2364
1492035423.3728830814,1492035423.3753120899, -0.0312,  0.1031,  0.0123, -0.1419, -0.0288, -0.3201
1492035423.3756890297,1492035423.3781170845, -0.0312,  0.1031,  0.0123, -0.1419, -0.0288, -0.3201
1492035423.3784949780,1492035423.3808889389, -0.0312,  0.1031,  0.0123, -0.1419, -0.0288, -0.3201
1492035423.3812580109,1492035423.3835639954, -0.0312,  0.1031,  0.0123, -0.1419, -0.0678, -0.4121
1492035423.3839330673,1492035423.3862330914, -0.0312,  0.1031,  0.0123, -0.1698, -0.0643, -0.4121
1492035423.3866031170,1492035423.3889040947, -0.0312,  0.1031,  0.0123, -0.1698, -0.0643, -0.4121
1492035423.3892729282,1492035423.3916819096, -0.0312,  0.1031,  0.0123, -0.1698, -0.0643, -0.4121
1492035423.3920590878,1492035423.3944869041, -0.0370,  0.1143,  0.0216, -0.1799, -0.1012, -0.4890
1492035423.3948628902,1492035423.3972899914, -0.0370,  0.1143,  0.0216, -0.1799, -0.1012, -0.4890
1492035423.3976659775,1492035423.4001030922, -0.0370,  0.1143,  0.0216, -0.1799, -0.1012, -0.4890
1492035423.4004740715,1492035423.4027709961, -0.0370,  0.1143,  0.0216, -0.1799, -0.1012, -0.4890
1492035423.4031410217,1492035423.4054479599, -0.0370,  0.1143,  0.0216, -0.1804, -0.1332, -0.5588
1492035423.4058179855,1492035423.4081180096, -0.0370,  0.1143,  0.0216, -0.1804, -0.1332, -0.5588
1492035423.4084870815,1492035423.4108810425, -0.0370,  0.1143,  0.0216, -0.1804, -0.1332, -0.5588
1492035423.4112570286,1492035423.4136800766, -0.0642,  0.0702,  0.0235, -0.1804, -0.1332, -0.5588
1492035423.4140560627,1492035423.4164769650, -0.0642,  0.0702,  0.0235, -0.1837, -0.1537, -0.6145
1492035423.4168519974,1492035423.4192779064, -0.0642,  0.0702,  0.0235, -0.1837, -0.1537, -0.6145
1492035423.4196529388,1492035423.4220890999, -0.0642,  0.0702,  0.0235, -0.1837, -0.1537, -0.6145
1492035423.4224660397,1492035423.4248919487, -0.0642,  0.0702,  0.0235, -0.1837, -0.1772, -0.6534
1492035423.4252688885,1492035423.4276940823, -0.0642,  0.0702,  0.0235, -0.2091, -0.1769, -0.6534
1492035423.4280691147,1492035423.4305050373, -0.0642,  0.0702,  0.0235, -0.2091, -0.1769, -0.6534
1492035423.4309968948,1492035423.4334220886, -0.0813,  0.0759,  0.0633, -0.2091, -0.1769, -0.6534
1492035423.4337980747,1492035423.4362230301, -0.0813,  0.0759,  0.0633, -0.2183, -0.2061, -0.6863
1492035423.4365990162,1492035423.4390261173, -0.0813,  0.0759,  0.0633, -0.2183, -0.2061, -0.6863
1492035423.4394021034,1492035423.4418361187, -0.0813,  0.0759,  0.0633, -0.2183, -0.2061, -0.6863
1492035423.4422130585,1492035423.4446380138, -0.0813,  0.0759,  0.0633, -0.2183, -0.2061, -0.6863
1492035423.4450139999,1492035423.4474329948, -0.0813,  0.0759,  0.0633, -0.1769, -0.2362, -0.7147
1492035423.4478080273,1492035423.4502310753, -0.0813,  0.0759,  0.0633, -0.1769, -0.2362, -0.7147
1492035423.4506030083,1492035423.4528970718, -0.0845,  0.1443,  0.0657, -0.1769, -0.2362, -0.7147
1492035423.4532649517,1492035423.4555630684, -0.0845,  0.1443,  0.0657, -0.1769, -0.2362, -0.7329
1492035423.4559309483,1492035423.4582350254, -0.0845,  0.1443,  0.0657, -0.1113, -0.2602, -0.7329
1492035423.4586029053,1492035423.4609630108, -0.0845,  0.1443,  0.0657, -0.1113, -0.2602, -0.7329
1492035423.4613399506,1492035423.4637639523, -0.0845,  0.1443,  0.0657, -0.1113, -0.2602, -0.7329
1492035423.4641430378,1492035423.4665710926, -0.0845,  0.1443,  0.0657, -0.0669, -0.2840, -0.7393
1492035423.4669470787,1492035423.4693748951, -0.0845,  0.1443,  0.0657, -0.0669, -0.2840, -0.7393
1492035423.4697499275,1492035423.4721770287, -0.0845,  0.1067,  0.0461, -0.0669, -0.2840, -0.7393
1492035423.4725549221,1492035423.4749779701, -0.1734,  0.1067,  0.0461, -0.0669, -0.2840, -0.7393
1492035423.4753570557,1492035423.4777810574, -0.1734,  0.1067,  0.0461, -0.0566, -0.2989, -0.7380
1492035423.4781560898,1492035423.4806280136, -0.1734,  0.1067,  0.0461, -0.0566, -0.2989, -0.7380
1492035423.4810049534,1492035423.4834311008, -0.1734,  0.1067,  0.0461, -0.0566, -0.2989, -0.7380
1492035423.4838089943,1492035423.4862349033, -0.1734,  0.1067,  0.0461, -0.0566, -0.2989, -0.7285
1492035423.4866099358,1492035423.4890348911, -0.1734,  0.1067,  0.0461, -0.0514, -0.3075, -0.7285
1492035423.4894111156,1492035423.4918470383, -0.1734,  0.1145,  0.0323, -0.0514, -0.3075, -0.7285
1492035423.4922239780,1492035423.4946489334, -0.2102,  0.1101,  0.0323, -0.0514, -0.3075, -0.7285
1492035423.4950249195,1492035423.4974470139, -0.2102,  0.1101,  0.0323, -0.0604, -0.3259, -0.7131
1492035423.4978239536,1492035423.5002479553, -0.2102,  0.1101,  0.0323, -0.0604, -0.3259, -0.7131
1492035423.5006179810,1492035423.5029180050, -0.2102,  0.1101,  0.0323, -0.0604, -0.3259, -0.7131
1492035423.5032870770,1492035423.5055849552, -0.2102,  0.1101,  0.0323, -0.0604, -0.3259, -0.7131
1492035423.5059540272,1492035423.5082509518, -0.2102,  0.1101,  0.0323, -0.0688, -0.3476, -0.7010
1492035423.5086219311,1492035423.5110390186, -0.2102,  0.1101,  0.0323, -0.0688, -0.3476, -0.7010
1492035423.5114150047,1492035423.5138430595, -0.2587,  0.1562,  0.0248, -0.0688, -0.3476, -0.7010
1492035423.5142199993,1492035423.5166490078, -0.2587,  0.1562,  0.0248, -0.0688, -0.3476, -0.7010
1492035423.5170269012,1492035423.5194480419, -0.2587,  0.1562,  0.0248, -0.0424, -0.3587, -0.6911
1492035423.5198259354,1492035423.5222620964, -0.2587,  0.1562,  0.0248, -0.0424, -0.3587, -0.6911
1492035423.5226390362,1492035423.5250620842, -0.2587,  0.1562,  0.0248, -0.0424, -0.3587, -0.6911
1492035423.5254380703,1492035423.5278639793, -0.2587,  0.1562,  0.0248, -0.0424, -0.3445, -0.6437
1492035423.5282409191,1492035423.5306799412, -0.2587,  0.1562,  0.0248, -0.0060, -0.3445, -0.6437
1492035423.5310568810,1492035423.5334830284, -0.3803,  0.3287, -0.0296, -0.0060, -0.3445, -0.6437
1492035423.5338580608,1492035423.5362839699, -0.3803,  0.3287, -0.0296, -0.0060, -0.3445, -0.6437
1492035423.5366609097,1492035423.5390830040, -0.3803,  0.3287, -0.0296,  0.0102, -0.3087, -0.5828
1492035423.5394589901,1492035423.5418961048, -0.3803,  0.3287, -0.0296,  0.0102, -0.3087, -0.5828
1492035423.5422720909,1492035423.5446980000, -0.3803,  0.3287, -0.0296,  0.0102, -0.3087, -0.5828
1492035423.5450739861,1492035423.5475020409, -0.3803,  0.3287, -0.0296,  0.0102, -0.3087, -0.5828
1492035423.5479838848,1492035423.5504059792, -0.3803,  0.3287, -0.0296,  0.0492, -0.2524, -0.5408
1492035423.5507750511,1492035423.5530750751, -0.3987,  0.4320, -0.0952,  0.0492, -0.2524, -0.5408
1492035423.5534420013,1492035423.5557429790, -0.3987,  0.4320, -0.0952,  0.0492, -0.2524, -0.5408
1492035423.5561120510,1492035423.5584061146, -0.3987,  0.4320, -0.0952,  0.0492, -0.2524, -0.4592
1492035423.5587770939,1492035423.5611460209, -0.3987,  0.4320, -0.0952,  0.0829, -0.1985, -0.4592
1492035423.5615251064,1492035423.5639491081, -0.3987,  0.4320, -0.0952,  0.0829, -0.1985, -0.4592
1492035423.5643250942,1492035423.5667469501, -0.3987,  0.4320, -0.0952,  0.0829, -0.1985, -0.4592
1492035423.5671238899,1492035423.5695528984, -0.3987,  0.4320, -0.0952,  0.0887, -0.1531, -0.3431
1492035423.5699288845,1492035423.5723559856, -0.3328,  0.5082, -0.1097,  0.0887, -0.1531, -0.3431
1492035423.5727341175,1492035423.5751619339, -0.3328,  0.5082, -0.1097,  0.0887, -0.1531, -0.3431
1492035423.5755391121,1492035423.5779619217, -0.3328,  0.5082, -0.1097,  0.0887, -0.1531, -0.3431
1492035423.5783379078,1492035423.5807681084, -0.3328,  0.5082, -0.1097,  0.1017, -0.1049, -0.2387
1492035423.5811479092,1492035423.5835759640, -0.3328,  0.5082, -0.1097,  0.1017, -0.1049, -0.2387
1492035423.5839519501,1492035423.5863709450, -0.3328,  0.5082, -0.1097,  0.1017, -0.1049, -0.2387
1492035423.5867478848,1492035423.5891749859, -0.3328,  0.5082, -0.1097,  0.1017, -0.1049, -0.1514
1492035423.5895540714,1492035423.5920209885, -0.1795,  0.5020, -0.1189,  0.1337, -0.0779, -0.1514
1492035423.5923969746,1492035423.5948169231, -0.1795,  0.5020, -0.1189,  0.1337, -0.0779, -0.1514
1492035423.5951929092,1492035423.5976200104, -0.1795,  0.5020, -0.1189,  0.1337, -0.0779, -0.1514
1492035423.5979950428,1492035423.6004109383, -0.1795,  0.5020, -0.1189,  0.1748, -0.0743, -0.0817
1492035423.6007831097,1492035423.6030840874, -0.1795,  0.5020, -0.1189,  0.1748, -0.0743, -0.0817
1492035423.6034529209,1492035423.6057519913, -0.1795,  0.5020, -0.1189,  0.1748, -0.0743, -0.0817
1492035423.6061220169,1492035423.6084210873, -0.1795,  0.5020, -0.1189,  0.1748, -0.0743, -0.0817
1492035423.6087899208,1492035423.6111500263, -0.1717,  0.3922, -0.1414,  0.2155, -0.0619, -0.0049
1492035423.6115269661,1492035423.6139540672, -0.1645,  0.3922, -0.1414,  0.2155, -0.0619, -0.0049
1492035423.6143319607,1492035423.6167600155, -0.1645,  0.3922, -0.1414,  0.2155, -0.0619, -0.0049
1492035423.6171360016,1492035423.6195619106, -0.1645,  0.3922, -0.1414,  0.2155, -0.0619, -0.0049
1492035423.6199378967,1492035423.6223781109, -0.1645,  0.3922, -0.1414,  0.2273, -0.0182,  0.0589
1492035423.6227550507,1492035423.6251809597, -0.1645,  0.3922, -0.1414,  0.2273, -0.0182,  0.0589
1492035423.6255569458,1492035423.6279850006, -0.1645,  0.3922, -0.1414,  0.2273, -0.0182,  0.0589
1492035423.6283600330,1492035423.6308329105, -0.1645,  0.2419, -0.2281,  0.2273,  0.0548,  0.1089
1492035423.6312100887,1492035423.6336379051, -0.1605,  0.2419, -0.2281,  0.2392,  0.0548,  0.1089
1492035423.6340160370,1492035423.6364440918, -0.1605,  0.2419, -0.2281,  0.2392,  0.0548,  0.1089
1492035423.6368210316,1492035423.6392450333, -0.1605,  0.2419, -0.2281,  0.2392,  0.0548,  0.1089
1492035423.6396210194,1492035423.6420540810, -0.1605,  0.2419, -0.2281,  0.2188,  0.0954,  0.1486
1492035423.6424300671,1492035423.6448540688, -0.1605,  0.2419, -0.2281,  0.2188,  0.0954,  0.1486
1492035423.6452300549,1492035423.6476550102, -0.1605,  0.2419, -0.2281,  0.2188,  0.0954,  0.1486
1492035423.6480300426,1492035423.6504530907, -0.1605, -0.0003, -0.2087,  0.2188,  0.0954,  0.1486
1492035423.6508231163,1492035423.6531240940, -0.1449, -0.0051, -0.2087,  0.1525,  0.0315,  0.0990
1492035423.6534938812,1492035423.6557939053, -0.1449, -0.0051, -0.2087,  0.1525,  0.0315,  0.0990
1492035423.6561660767,1492035423.6584670544, -0.1449, -0.0051, -0.2087,  0.1525,  0.0315,  0.0990
1492035423.6588358879,1492035423.6612529755, -0.1449, -0.0051, -0.2087,  0.1525,  0.0315,  0.1270
1492035423.6616311073,1492035423.6640589237, -0.1449, -0.0051, -0.2087,  0.0617,  0.1769,  0.1270
1492035423.6645429134,1492035423.6669740677, -0.1449, -0.0051, -0.2087,  0.0617,  0.1769,  0.1270
1492035423.6673510075,1492035423.6697759628, -0.1449, -0.0051,  0.0648,  0.0617,  0.1769,  0.1270
1492035423.6701619625,1492035423.6725931168, -0.2765,  0.1712,  0.0649, -0.1324,  0.0222,  0.3995
1492035423.6729669571,1492035423.6753880978, -0.2765,  0.1712,  0.0649, -0.1324,  0.0222,  0.3995
1492035423.6757650375,1492035423.6781909466, -0.2765,  0.1712,  0.0649, -0.1324,  0.0222,  0.3995
1492035423.6785669327,1492035423.6810319424, -0.2765,  0.1712,  0.0649, -0.1324,  0.0222,  0.3995
1492035423.6814088821,1492035423.6838319302, -0.2765,  0.1712,  0.0649, -0.2509, -0.3906,  0.7088
1492035423.6842091084,1492035423.6866400242, -0.2765,  0.1712,  0.0649, -0.2509, -0.3906,  0.7088
1492035423.6870191097,1492035423.6894440651, -0.2765,  0.1712,  0.2289, -0.2509, -0.3906,  0.7088
1492035423.6898200512,1492035423.6922490597, -0.9726,  0.2495,  0.2286, -0.2509, -0.3906,  0.3881
1492035423.6926250458,1492035423.6950490475, -0.9726,  0.2495,  0.2286, -0.2136,  0.0739,  0.3881
1492035423.6954259872,1492035423.6978509426, -0.9726,  0.2495,  0.2286, -0.2136,  0.0739,  0.3881
1492035423.6982269287,1492035423.7006359100, -0.9726,  0.2495,  0.2286, -0.2136,  0.0739,  0.3881
1492035423.7010040283,1492035423.7033050060, -0.9726,  0.2495,  0.2286, -0.0210,  0.2778,  0.2818
1492035423.7036728859,1492035423.7059741020, -0.9726,  0.2495,  0.2286, -0.0210,  0.2778,  0.2818
1492035423.7063419819,1492035423.7086460590, -0.9726,  0.2495,  0.2286, -0.0210,  0.2778,  0.2818
1492035423.7090148926,1492035423.7114539146, -0.1474,  0.4409, -0.4355, -0.0210,  0.2778,  0.2818
1492035423.7118299007,1492035423.7142550945, -0.1474,  0.4409, -0.4355, -0.1682,  0.4097,  0.8351
1492035423.7146289349,1492035423.7170588970, -0.1474,  0.4409, -0.4355, -0.1682,  0.4097,  0.8351
1492035423.7174329758,1492035423.7198600769, -0.1474,  0.4409, -0.4355, -0.1682,  0.4097,  0.8351
1492035423.7202448845,1492035423.7226729393, -0.1474,  0.4409, -0.4355, -0.1682,  0.4097,  0.7726
1492035423.7230470181,1492035423.7254750729, -0.1474,  0.4409, -0.4355,  0.0254,  0.4045,  0.7708
1492035423.7258510590,1492035423.7282779217, -0.1474,  0.4409, -0.4355,  0.0254,  0.4045,  0.7708
1492035423.7286550999,1492035423.7310919762,  0.0258,  0.0594, -0.0561,  0.0254,  0.4045,  0.7708
1492035423.7314679623,1492035423.7338900566,  0.0258,  0.0594, -0.0561,  0.2675, -0.1085,  0.3099
1492035423.7342660427,1492035423.7366940975,  0.0258,  0.0594, -0.0561,  0.2708, -0.1085,  0.3099
1492035423.7370710373,1492035423.7394979000,  0.0258,  0.0594, -0.0561,  0.2708, -0.1085,  0.3099
1492035423.7398760319,1492035423.7421939373,  0.0258,  0.0594, -0.0561,  0.2708, -0.1085,  0.3099
1492035423.7425630093,1492035423.7448689938,  0.0258,  0.0594, -0.0561,  0.2595, -0.2650,  0.1409
1492035423.7452371120,1492035423.7475399971,  0.0258,  0.0594, -0.0561,  0.2595, -0.2650,  0.1409
1492035423.7479090691,1492035423.7502551079, -0.3061,  0.0852,  0.0106,  0.2595, -0.2650,  0.1409
1492035423.7506229877,1492035423.7529249191, -0.3061,  0.0852,  0.0106,  0.2595, -0.2650,  0.1409
1492035423.7532949448,1492035423.7555909157, -0.3061,  0.0852,  0.0106,  0.2659, -0.1721,  0.0150
1492035423.7559580803,1492035423.7582509518, -0.3061,  0.0852,  0.0106,  0.2659, -0.1721,  0.0150
1492035423.7586181164,1492035423.7610220909, -0.3061,  0.0852,  0.0106,  0.2659, -0.1721,  0.0150
1492035423.7613980770,1492035423.7638230324, -0.3061,  0.0852,  0.0106,  0.2659, -0.1721,  0.1790
1492035423.7641990185,1492035423.7666258812, -0.3061,  0.0852,  0.0106,  0.2753,  0.0681,  0.1766
1492035423.7670040131,1492035423.7694299221, -0.3061,  0.1164, -0.0477,  0.2753,  0.0681,  0.1766
1492035423.7698071003,1492035423.7722449303, -0.2340,  0.1164, -0.0477,  0.2753,  0.0681,  0.1766
1492035423.7726209164,1492035423.7750461102, -0.2340,  0.1164, -0.0477,  0.3535,  0.2438,  0.2025
1492035423.7754240036,1492035423.7778470516, -0.2340,  0.1164, -0.0477,  0.3516,  0.2438,  0.2025
1492035423.7783288956,1492035423.7807590961, -0.2340,  0.1164, -0.0477,  0.3516,  0.2438,  0.2025
1492035423.7811360359,1492035423.7835628986, -0.2340,  0.1164, -0.0477,  0.3516,  0.2438,  0.2025
1492035423.7839400768,1492035423.7863628864, -0.2340,  0.1164, -0.0477,  0.2664,  0.2076,  0.1593
1492035423.7867379189,1492035423.7891650200, -0.2340,  0.0851, -0.0143,  0.2664,  0.2076,  0.1593
1492035423.7895419598,1492035423.7919740677, -0.2536,  0.0808, -0.0143,  0.2664,  0.2076,  0.1593
1492035423.7923500538,1492035423.7947750092, -0.2536,  0.0808, -0.0143,  0.2664,  0.2076,  0.1281
1492035423.7951529026,1492035423.7975780964, -0.2536,  0.0808, -0.0143,  0.2143,  0.1724,  0.1310
1492035423.7979550362,1492035423.8004031181, -0.2536,  0.0808, -0.0143,  0.2143,  0.1724,  0.1310
1492035423.8007740974,1492035423.8030729294, -0.2536,  0.0808, -0.0143,  0.2143,  0.1724,  0.1310
1492035423.8034420013,1492035423.8057470322, -0.2536,  0.0808, -0.0143,  0.1283,  0.1460,  0.1199
1492035423.8061149120,1492035423.8084158897, -0.2536,  0.0808,  0.0247,  0.1286,  0.1460,  0.1199
1492035423.8087859154,1492035423.8111519814, -0.3301,  0.0768,  0.0281,  0.1286,  0.1460,  0.1199
1492035423.8115279675,1492035423.8139519691, -0.3301,  0.0768,  0.0281,  0.1286,  0.1460,  0.1199
1492035423.8143289089,1492035423.8167479038, -0.3301,  0.0768,  0.0281,  0.1529,  0.1622,  0.0703
1492035423.8171219826,1492035423.8195569515, -0.3301,  0.0768,  0.0281,  0.1529,  0.1622,  0.0703
1492035423.8199350834,1492035423.8223628998, -0.3301,  0.0768,  0.0281,  0.1529,  0.1622,  0.0703
1492035423.8227379322,1492035423.8251619339, -0.3301,  0.0768,  0.0281,  0.1529,  0.1622,  0.0703
1492035423.8255369663,1492035423.8279650211, -0.3301,  0.0768,  0.0281,  0.1324,  0.1347, -0.0238
1492035423.8283410072,1492035423.8307681084, -0.4278,  0.0130,  0.0564,  0.1324,  0.1347, -0.0238
1492035423.8311429024,1492035423.8335740566, -0.4278,  0.0130,  0.0564,  0.1324,  0.1347, -0.0238
1492035423.8339509964,1492035423.8363749981, -0.4278,  0.0130,  0.0564,  0.1324,  0.1347, -0.0088
1492035423.8367509842,1492035423.8391780853, -0.4278,  0.0130,  0.0564,  0.0918,  0.1343, -0.0088
1492035423.8395550251,1492035423.8420290947, -0.4278,  0.0130,  0.0564,  0.0918,  0.1343, -0.0088
1492035423.8424079418,1492035423.8448359966, -0.4278,  0.0130,  0.0564,  0.0918,  0.1343, -0.0088
1492035423.8452129364,1492035423.8476378918, -0.4278,  0.0130,  0.0564,  0.0634,  0.1371,  0.0698
1492035423.8480129242,1492035423.8504309654, -0.4288, -0.0741,  0.1663,  0.0634,  0.1371,  0.0698
1492035423.8508009911,1492035423.8531029224, -0.4288, -0.0741,  0.1663,  0.0634,  0.1371,  0.0698
1492035423.8534729481,1492035423.8557720184, -0.4288, -0.0741,  0.1663,  0.0634,  0.1371,  0.0698
1492035423.8561398983,1492035423.8584420681, -0.4288, -0.0741,  0.1663,  0.0410,  0.1099,  0.1081
1492035423.8588109016,1492035423.8612289429, -0.4288, -0.0741,  0.1663,  0.0410,  0.1099,  0.1081
1492035423.8616049290,1492035423.8640360832, -0.4288, -0.0741,  0.1663,  0.0410,  0.1099,  0.1081
1492035423.8644149303,1492035423.8668410778, -0.4288, -0.0741,  0.1663,  0.0410,  0.1099,  0.0925
1492035423.8672170639,1492035423.8696489334, -0.2305, -0.2410,  0.2185,  0.0286,  0.0855,  0.0883
1492035423.8700330257,1492035423.8724629879, -0.2305, -0.2410,  0.2185,  0.0286,  0.0855,  0.0883
1492035423.8728420734,1492035423.8752698898, -0.2305, -0.2410,  0.2185,  0.0286,  0.0855,  0.0883
1492035423.8756439686,1492035423.8780720234, -0.2305, -0.2410,  0.2185,  0.0977,  0.0324,  0.0280
1492035423.8784470558,1492035423.8808469772, -0.2305, -0.2410,  0.2185,  0.0977,  0.0324,  0.0280
1492035423.8812150955,1492035423.8835110664, -0.2305, -0.2410,  0.2185,  0.0977,  0.0324,  0.0280
1492035423.8838820457,1492035423.8861789703, -0.2305, -0.2410,  0.2185,  0.0977,  0.0324,  0.0280
1492035423.8865470886,1492035423.8888459206, -0.3449, -0.0191,  0.0160,  0.2471, -0.0434, -0.0472
1492035423.8892140388,1492035423.8916521072, -0.3449, -0.0191,  0.0160,  0.2471, -0.0434, -0.0472
1492035423.8920280933,1492035423.8944609165, -0.3449, -0.0191,  0.0160,  0.2471, -0.0434, -0.0472
1492035423.8949470520,1492035423.8973739147, -0.3449, -0.0191,  0.0160,  0.2471, -0.0434, -0.0472
1492035423.8977499008,1492035423.9002261162, -0.3449, -0.0191,  0.0160,  0.3229,  0.0887, -0.0226
1492035423.9005949497,1492035423.9028921127, -0.3449, -0.0191,  0.0160,  0.3229,  0.0887, -0.0226
1492035423.9032599926,1492035423.9055600166, -0.3449, -0.0191,  0.0160,  0.3229,  0.0887, -0.0226
1492035423.9059319496,1492035423.9082269669, -0.3449,  0.2533,  0.0295,  0.3229,  0.0887,  0.1169
1492035423.9085979462,1492035423.9109599590, -0.1744,  0.2533,  0.0295,  0.1055,  0.1305,  0.1169
1492035423.9113340378,1492035423.9137589931, -0.1744,  0.2533,  0.0295,  0.1055,  0.1305,  0.1169
1492035423.9141340256,1492035423.9165599346, -0.1744,  0.2533,  0.0295,  0.1055,  0.1305,  0.1169
1492035423.9169371128,1492035423.9193649292, -0.1744,  0.2533,  0.0295,  0.0752,  0.1570,  0.1524
1492035423.9197399616,1492035423.9221670628, -0.1744,  0.2533,  0.0295,  0.0752,  0.1570,  0.1524
1492035423.9225420952,1492035423.9249620438, -0.1744,  0.2533,  0.0295,  0.0752,  0.1570,  0.1524
1492035423.9253358841,1492035423.9277570248, -0.1744, -0.0357,  0.0912,  0.0752,  0.1570,  0.1524
1492035423.9281349182,1492035423.9305629730, -0.1630, -0.0331,  0.0912,  0.0948,  0.1820,  0.1554
1492035423.9309399128,1492035423.9333651066, -0.1630, -0.0331,  0.0912,  0.0948,  0.1820,  0.1554
1492035423.9337399006,1492035423.9361650944, -0.1630, -0.0331,  0.0912,  0.0948,  0.1820,  0.1554
1492035423.9365420341,1492035423.9389660358, -0.1630, -0.0331,  0.0912,  0.0948,  0.1820,  0.1314
1492035423.9393420219,1492035423.9417750835, -0.1630, -0.0331,  0.0912,  0.1293,  0.1610,  0.1314
1492035423.9421501160,1492035423.9445769787, -0.1630, -0.0331,  0.0912,  0.1293,  0.1610,  0.1314
1492035423.9449529648,1492035423.9473769665, -0.1630, -0.0331,  0.0959,  0.1293,  0.1610,  0.1314
1492035423.9477529526,1492035423.9502151012, -0.1139, -0.0927,  0.0959,  0.1809,  0.1201,  0.2019
1492035423.9505860806,1492035423.9528889656, -0.1139, -0.0927,  0.0959,  0.1809,  0.1201,  0.2019
1492035423.9532580376,1492035423.9555559158, -0.1139, -0.0927,  0.0959,  0.1809,  0.1201,  0.2019
1492035423.9559249878,1492035423.9582240582, -0.1139, -0.0927,  0.0959,  0.1809,  0.1201,  0.2019
1492035423.9585950375,1492035423.9609498978, -0.1139, -0.0927,  0.0959,  0.0828,  0.1315,  0.2632
1492035423.9613258839,1492035423.9637379646, -0.1139, -0.0927,  0.0959,  0.0828,  0.1315,  0.2632
1492035423.9641160965,1492035423.9665310383, -0.1139, -0.0927,  0.0959,  0.0828,  0.1315,  0.2632
1492035423.9669070244,1492035423.9693191051, -0.1415, -0.0666,  0.0444,  0.0828,  0.1315,  0.2632
1492035423.9696938992,1492035423.9721140862, -0.1415, -0.0666,  0.0444,  0.0031,  0.1548,  0.2603
1492035423.9724919796,1492035423.9749059677, -0.1415, -0.0666,  0.0444,  0.0031,  0.1548,  0.2603
1492035423.9752819538,1492035423.9776968956, -0.1415, -0.0666,  0.0444,  0.0031,  0.1548,  0.2603
1492035423.9780728817,1492035423.9804930687, -0.1415, -0.0666,  0.0444,  0.0031,  0.1626,  0.2519
1492035423.9808669090,1492035423.9832599163, -0.1415, -0.0666,  0.0444,  0.0575,  0.1622,  0.2519
1492035423.9836339951,1492035423.9860270023, -0.1415, -0.0666,  0.0444,  0.0575,  0.1622,  0.2519
1492035423.9863998890,1492035423.9887909889, -0.2855, -0.1289,  0.0224,  0.0575,  0.1622,  0.2519
1492035423.9891669750,1492035423.9917109013, -0.2855, -0.1289,  0.0224,  0.1003,  0.1914,  0.2850
1492035423.9920868874,1492035423.9945158958, -0.2855, -0.1289,  0.0224,  0.1003,  0.1914,  0.2850
1492035423.9948940277,1492035423.9973170757, -0.2855, -0.1289,  0.0224,  0.1003,  0.1914,  0.2850
1492035423.9976949692,1492035424.0001330376, -0.2855, -0.1289,  0.0224,  0.1003,  0.1914,  0.2850
1492035424.0005009174,1492035424.0028018951, -0.2855, -0.1289,  0.0224,  0.0660,  0.2435,  0.3284
1492035424.0031681061,1492035424.0054759979, -0.2855, -0.1289,  0.0224,  0.0660,  0.2435,  0.3284
1492035424.0058441162,1492035424.0081450939, -0.3845, -0.1260,  0.0976,  0.0660,  0.2435,  0.3284
1492035424.0085139275,1492035424.0108280182, -0.3845, -0.1260,  0.0976,  0.0660,  0.2435,  0.3674
1492035424.0113039017,1492035424.0136029720, -0.3845, -0.1260,  0.0976,  0.0449,  0.2684,  0.3682
1492035424.0139710903,1492035424.0162730217, -0.3845, -0.1260,  0.0976,  0.0449,  0.2684,  0.3682
1492035424.0166409016,1492035424.0189380646, -0.3845, -0.1260,  0.0976,  0.0449,  0.2684,  0.3682
1492035424.0193068981,1492035424.0217120647, -0.3845, -0.1260,  0.0976,  0.0449,  0.2850,  0.3828
1492035424.0220890045,1492035424.0245130062, -0.3845, -0.1260,  0.0976,  0.0369,  0.2850,  0.3828
1492035424.0248889923,1492035424.0273139477, -0.3611, -0.1567,  0.1298,  0.0369,  0.2850,  0.3828
1492035424.0276889801,1492035424.0301229954, -0.3596, -0.1567,  0.1298,  0.0369,  0.2850,  0.3828
1492035424.0304999352,1492035424.0329220295, -0.3596, -0.1567,  0.1298,  0.0253,  0.2868,  0.3869
1492035424.0332961082,1492035424.0357229710, -0.3596, -0.1567,  0.1298,  0.0253,  0.2868,  0.3869
1492035424.0360970497,1492035424.0385200977, -0.3596, -0.1567,  0.1298,  0.0253,  0.2868,  0.3869
1492035424.0388939381,1492035424.0413310528, -0.3596, -0.1567,  0.1298,  0.0253,  0.2868,  0.3869
1492035424.0417070389,1492035424.0441350937, -0.3596, -0.1567,  0.1298,  0.0385,  0.2919,  0.3838
1492035424.0445089340,1492035424.0469369888, -0.3596, -0.1032,  0.1167,  0.0385,  0.2919,  0.3838
1492035424.0473129749,1492035424.0497379303, -0.3497, -0.1032,  0.1167,  0.0385,  0.2919,  0.3838
1492035424.0501248837,1492035424.0525529385, -0.3497, -0.1032,  0.1167,  0.0385,  0.2919,  0.3710
1492035424.0529301167,1492035424.0553610325, -0.3497, -0.1032,  0.1167,  0.0707,  0.2952,  0.3710
1492035424.0557370186,1492035424.0581629276, -0.3497, -0.1032,  0.1167,  0.0707,  0.2952,  0.3710
1492035424.0585401058,1492035424.0609159470, -0.3497, -0.1032,  0.1167,  0.0707,  0.2952,  0.3710
1492035424.0612869263,1492035424.0635869503, -0.3497, -0.1032,  0.1167,  0.1405,  0.3328,  0.3336
1492035424.0639550686,1492035424.0662550926, -0.3497, -0.1032,  0.0280,  0.1405,  0.3328,  0.3336
1492035424.0666229725,1492035424.0689220428, -0.4100, -0.1000,  0.0280,  0.1405,  0.3328,  0.3336
1492035424.0692911148,1492035424.0717051029, -0.4100, -0.1000,  0.0280,  0.1405,  0.3328,  0.3336
1492035424.0720839500,1492035424.0745129585, -0.4100, -0.1000,  0.0280,  0.1609,  0.3657,  0.2754
1492035424.0748910904,1492035424.0773179531, -0.4100, -0.1000,  0.0280,  0.1609,  0.3657,  0.2754
1492035424.0776929855,1492035424.0801279545, -0.4100, -0.1000,  0.0280,  0.1609,  0.3657,  0.2754
1492035424.0805060863,1492035424.0829389095, -0.4100, -0.1000,  0.0280,  0.1609,  0.3657,  0.1942
1492035424.0833160877,1492035424.0857429504, -0.4100, -0.1000,  0.0280,  0.0892,  0.3264,  0.1942
1492035424.0861198902,1492035424.0885429382, -0.3183, -0.1218,  0.0851,  0.0892,  0.3264,  0.1942
1492035424.0889189243,1492035424.0913479328, -0.3183, -0.1218,  0.0851,  0.0892,  0.3264,  0.1942
1492035424.0917251110,1492035424.0941529274, -0.3183, -0.1218,  0.0851, -0.0394,  0.2794,  0.1490
1492035424.0945301056,1492035424.0969541073, -0.3183, -0.1218,  0.0851, -0.0394,  0.2794,  0.1490
1492035424.0973289013,1492035424.0997490883, -0.3183, -0.1218,  0.0851, -0.0394,  0.2794,  0.1490
1492035424.1001360416,1492035424.1025691032, -0.3183, -0.1218,  0.0851, -0.0394,  0.2794,  0.1490
1492035424.1029460430,1492035424.1053719521, -0.3183, -0.1218,  0.0851, -0.1461,  0.2508,  0.1010
1492035424.1057500839,1492035424.1086769104, -0.2065, -0.0981,  0.0385, -0.1461,  0.2508,  0.1010
1492035424.1090509892,1492035424.1115920544, -0.2065, -0.0981,  0.0385, -0.1461,  0.2508,  0.1010
1492035424.1119620800,1492035424.1142549515, -0.2065, -0.0981,  0.0385, -0.1461,  0.2117,  0.0319
1492035424.1146268845,1492035424.1169230938, -0.2065, -0.0981,  0.0385, -0.2162,  0.2159,  0.0319
1492035424.1172919273,1492035424.1195900440, -0.2065, -0.0981,  0.0385, -0.2162,  0.2159,  0.0319
1492035424.1199579239,1492035424.1223709583, -0.2065, -0.0981,  0.0385, -0.2162,  0.2159,  0.0319
1492035424.1227400303,1492035424.1250340939, -0.2065, -0.0981,  0.0385, -0.2549,  0.1682, -0.0536
1492035424.1254029274,1492035424.1276938915, -0.0943,  0.0198,  0.0497, -0.2549,  0.1682, -0.0536
1492035424.1281731129,1492035424.1304800510, -0.0943,  0.0198,  0.0497, -0.2549,  0.1682, -0.0536
1492035424.1308500767,1492035424.1331479549, -0.0943,  0.0198,  0.0497, -0.2549,  0.1682, -0.0536
1492035424.1335160732,1492035424.1358098984, -0.0943,  0.0198,  0.0497, -0.2304,  0.1086, -0.1678
1492035424.1361799240,1492035424.1384770870, -0.0943,  0.0198,  0.0497, -0.2304,  0.1086, -0.1678
1492035424.1388471127,1492035424.1412079334, -0.0943,  0.0198,  0.0497, -0.2304,  0.1086, -0.1678
1492035424.1415779591,1492035424.1438729763, -0.0943,  0.0198,  0.0497, -0.2304,  0.1086, -0.1678
1492035424.1442439556,1492035424.1465389729, -0.0114,  0.0881,  0.0670, -0.2042,  0.0643, -0.2595
1492035424.1469070911,1492035424.1492071152, -0.0114,  0.0881,  0.0670, -0.2042,  0.0643, -0.2595
1492035424.1495749950,1492035424.1520340443, -0.0114,  0.0881,  0.0670, -0.2042,  0.0643, -0.2595
1492035424.1524119377,1492035424.1548380852, -0.0114,  0.0881,  0.0670, -0.2042,  0.0643, -0.3532
1492035424.1552159786,1492035424.1576430798, -0.0114,  0.0881,  0.0670, -0.1794,  0.0283, -0.3563
1492035424.1580169201,1492035424.1604359150, -0.0114,  0.0881,  0.0670, -0.1794,  0.0283, -0.3563
1492035424.1608068943,1492035424.1631050110, -0.0114,  0.0881,  0.0670, -0.1794,  0.0283, -0.3563
1492035424.1634759903,1492035424.1657791138, -0.0114,  0.1252,  0.0529, -0.1794, -0.0119, -0.4424
1492035424.1661479473,1492035424.1684501171, -0.0031,  0.1252,  0.0529, -0.1492, -0.0119, -0.4424
1492035424.1688179970,1492035424.1712319851, -0.0031,  0.1252,  0.0529, -0.1492, -0.0119, -0.4424
1492035424.1716070175,1492035424.1740369797, -0.0031,  0.1252,  0.0529, -0.1492, -0.0119, -0.4424
1492035424.1744139194,1492035424.1768400669, -0.0031,  0.1252,  0.0529, -0.1031, -0.0508, -0.5376
1492035424.1772179604,1492035424.1796450615, -0.0031,  0.1252,  0.0529, -0.1031, -0.0508, -0.5376
1492035424.1800320148,1492035424.1824619770, -0.0031,  0.1252,  0.0529, -0.1031, -0.0508, -0.5376
1492035424.1828370094,1492035424.1852629185, -0.0031,  0.1252,  0.0378, -0.1031, -0.0508, -0.5376
1492035424.1856420040,1492035424.1880640984, -0.0343,  0.0648,  0.0378, -0.0554, -0.0787, -0.6269
1492035424.1884410381,1492035424.1908829212, -0.0343,  0.0648,  0.0378, -0.0554, -0.0787, -0.6269
1492035424.1912589073,1492035424.1936860085, -0.0343,  0.0648,  0.0378, -0.0554, -0.0787, -0.6269
1492035424.1940629482,1492035424.1964869499, -0.0343,  0.0648,  0.0378, -0.0554, -0.0943, -0.6846
1492035424.1968638897,1492035424.1992919445, -0.0343,  0.0648,  0.0378, -0.0237, -0.1009, -0.6846
1492035424.1996679306,1492035424.2019979954, -0.0343,  0.0648,  0.0378, -0.0237, -0.1009, -0.6846
1492035424.2023689747,1492035424.2046730518, -0.0343,  0.0648,  0.0691, -0.0237, -0.1009, -0.6846
1492035424.2050418854,1492035424.2073409557, -0.0634,  0.0399,  0.0653, -0.0244, -0.1726, -0.7219
1492035424.2077109814,1492035424.2100510597, -0.0634,  0.0399,  0.0653, -0.0244, -0.1726, -0.7219
1492035424.2104270458,1492035424.2128419876, -0.0634,  0.0399,  0.0653, -0.0244, -0.1726, -0.7219
1492035424.2132151127,1492035424.2156291008, -0.0634,  0.0399,  0.0653, -0.0244, -0.1726, -0.7219
1492035424.2160029411,1492035424.2184159756, -0.0634,  0.0399,  0.0653, -0.0421, -0.2266, -0.7376
1492035424.2187941074,1492035424.2212159634, -0.0634,  0.0399,  0.0653, -0.0421, -0.2266, -0.7376
1492035424.2215919495,1492035424.2240109444, -0.0634,  0.0399,  0.0653, -0.0421, -0.2266, -0.7376
1492035424.2243859768,1492035424.2268009186, -0.1194, -0.0092,  0.0333, -0.0421, -0.2266, -0.7454
1492035424.2271790504,1492035424.2295930386, -0.1194, -0.0092,  0.0333, -0.0852, -0.2701, -0.7492
1492035424.2299730778,1492035424.2324039936, -0.1194, -0.0092,  0.0333, -0.0852, -0.2701, -0.7492
1492035424.2328000069,1492035424.2352280617, -0.1194, -0.0092,  0.0333, -0.0852, -0.2701, -0.7492
1492035424.2356059551,1492035424.2380340099, -0.1194, -0.0092,  0.0333, -0.1321, -0.3104, -0.7514
1492035424.2384140491,1492035424.2408630848, -0.1194, -0.0092,  0.0333, -0.1285, -0.3104, -0.7514
1492035424.2412419319,1492035424.2436699867, -0.1194, -0.0092,  0.0333, -0.1285, -0.3104, -0.7514
1492035424.2441599369,1492035424.2465898991, -0.1635,  0.0344,  0.0606, -0.1285, -0.3104, -0.7514
1492035424.2469670773,1492035424.2493939400, -0.1635,  0.0344,  0.0606, -0.1687, -0.3514, -0.7459
1492035424.2497689724,1492035424.2521440983, -0.1635,  0.0344,  0.0606, -0.1687, -0.3514, -0.7459
1492035424.2525110245,1492035424.2548229694, -0.1635,  0.0344,  0.0606, -0.1687, -0.3514, -0.7459
1492035424.2551910877,1492035424.2574939728, -0.1635,  0.0344,  0.0606, -0.1687, -0.3514, -0.7459
1492035424.2578599453,1492035424.2602050304, -0.1635,  0.0344,  0.0606, -0.1767, -0.3857, -0.7396
1492035424.2605741024,1492035424.2628738880, -0.1635,  0.0344,  0.0606, -0.1767, -0.3857, -0.7396
1492035424.2632420063,1492035424.2655398846, -0.2053,  0.1037,  0.0782, -0.1767, -0.3857, -0.7396
1492035424.2659080029,1492035424.2682020664, -0.2053,  0.1037,  0.0782, -0.1767, -0.3857, -0.7335
1492035424.2685720921,1492035424.2709429264, -0.2053,  0.1037,  0.0782, -0.1570, -0.4150, -0.7335
1492035424.2713220119,1492035424.2737491131, -0.2053,  0.1037,  0.0782, -0.1570, -0.4150, -0.7335
1492035424.2741260529,1492035424.2765519619, -0.2053,  0.1037,  0.0782, -0.1570, -0.4150, -0.7335
1492035424.2769289017,1492035424.2793569565, -0.2053,  0.1037,  0.0782, -0.1161, -0.4406, -0.7283
1492035424.2797338963,1492035424.2821619511, -0.2053,  0.1037,  0.0782, -0.1161, -0.4406, -0.7283
1492035424.2825379372,1492035424.2849669456, -0.2521,  0.1314,  0.0765, -0.1161, -0.4406, -0.7283
1492035424.2853438854,1492035424.2877709866, -0.2526,  0.1314,  0.0765, -0.1161, -0.4406, -0.7283
1492035424.2881479263,1492035424.2906179428, -0.2526,  0.1314,  0.0765, -0.0714, -0.4651, -0.7200
1492035424.2909939289,1492035424.2934210300, -0.2526,  0.1314,  0.0765, -0.0714, -0.4651, -0.7200
1492035424.2937979698,1492035424.2962241173, -0.2526,  0.1314,  0.0765, -0.0714, -0.4651, -0.7200
1492035424.2965989113,1492035424.2990269661, -0.2526,  0.1314,  0.0765, -0.0714, -0.4651, -0.7071
1492035424.2994039059,1492035424.3018429279, -0.2526,  0.1314,  0.0765, -0.0370, -0.4598, -0.7071
1492035424.3022201061,1492035424.3046450615, -0.2526,  0.1767,  0.0011, -0.0370, -0.4598, -0.7071
1492035424.3050229549,1492035424.3074519634, -0.3231,  0.1767,  0.0011, -0.0370, -0.4598, -0.7071
1492035424.3078300953,1492035424.3102560043, -0.3231,  0.1767,  0.0011, -0.0108, -0.4510, -0.6877
1492035424.3106269836,1492035424.3129289150, -0.3231,  0.1767,  0.0011, -0.0108, -0.4510, -0.6877
1492035424.3132989407,1492035424.3156039715, -0.3231,  0.1767,  0.0011, -0.0108, -0.4510, -0.6877
1492035424.3159759045,1492035424.3182780743, -0.3231,  0.1767,  0.0011, -0.0108, -0.4510, -0.6877
1492035424.3186490536,1492035424.3210649490, -0.3231,  0.1767,  0.0011,  0.0189, -0.4067, -0.6460
1492035424.3214430809,1492035424.3238720894, -0.3231,  0.1767, -0.1416,  0.0189, -0.4067, -0.6460
1492035424.3242480755,1492035424.3266749382, -0.4997,  0.3747, -0.1416,  0.0189, -0.4067, -0.6460
1492035424.3270509243,1492035424.3294808865, -0.4997,  0.3747, -0.1416,  0.0189, -0.4067, -0.6460
1492035424.3298571110,1492035424.3322930336, -0.4997,  0.3747, -0.1416,  0.0463, -0.3088, -0.5586
1492035424.3326680660,1492035424.3350939751, -0.4997,  0.3747, -0.1416,  0.0463, -0.3088, -0.5586
1492035424.3354690075,1492035424.3378970623, -0.4997,  0.3747, -0.1416,  0.0463, -0.3088, -0.5586
1492035424.3382749557,1492035424.3407070637, -0.4997,  0.3747, -0.1416,  0.0463, -0.2387, -0.4799
1492035424.3410809040,1492035424.3435080051, -0.4997,  0.3747, -0.0947,  0.0607, -0.2387, -0.4799
1492035424.3438830376,1492035424.3463099003, -0.4997,  0.6150, -0.0991,  0.0607, -0.2387, -0.4799
1492035424.3466870785,1492035424.3491070271, -0.4997,  0.6150, -0.0991,  0.0607, -0.2387, -0.4799
1492035424.3494839668,1492035424.3519198895, -0.4997,  0.6150, -0.0991,  0.1017, -0.1991, -0.4055
1492035424.3522970676,1492035424.3547189236, -0.4997,  0.6150, -0.0991,  0.1017, -0.1991, -0.4055
1492035424.3550961018,1492035424.3575210571, -0.4997,  0.6150, -0.0991,  0.1017, -0.1991, -0.4055
1492035424.3579990864,1492035424.3604490757, -0.4997,  0.6150, -0.0991,  0.1017, -0.1991, -0.4055
1492035424.3608200550,1492035424.3631238937, -0.4997,  0.6150, -0.0991,  0.1334, -0.1487, -0.2992
1492035424.3634920120,1492035424.3657948971, -0.3055,  0.6389, -0.1366,  0.1334, -0.1487, -0.2992
1492035424.3661611080,1492035424.3684630394, -0.3055,  0.6389, -0.1366,  0.1334, -0.1487, -0.2992
1492035424.3688321114,1492035424.3711791039, -0.3055,  0.6389, -0.1366,  0.1334, -0.1487, -0.1630
1492035424.3715469837,1492035424.3738439083, -0.3055,  0.6389, -0.1366,  0.1435, -0.0694, -0.1630
1492035424.3742120266,1492035424.3765130043, -0.3055,  0.6389, -0.1366,  0.1435, -0.0694, -0.1630
1492035424.3768808842,1492035424.3791809082, -0.3055,  0.6389, -0.1366,  0.1435, -0.0694, -0.1630
1492035424.3795480728,1492035424.3819689751, -0.3055,  0.6389, -0.1366,  0.1435, -0.0157, -0.0345
1492035424.3823471069,1492035424.3847711086, -0.1753,  0.5146, -0.2227,  0.2324, -0.0157, -0.0345
1492035424.3851459026,1492035424.3875749111, -0.1753,  0.5146, -0.2227,  0.2324, -0.0157, -0.0345
1492035424.3879499435,1492035424.3904249668, -0.1753,  0.5146, -0.2227,  0.2324, -0.0157, -0.0345
1492035424.3908019066,1492035424.3932240009, -0.1753,  0.5146, -0.2227,  0.2988,  0.0200,  0.0526
1492035424.3936009407,1492035424.3960270882, -0.1753,  0.5146, -0.2227,  0.2988,  0.0200,  0.0526
1492035424.3964040279,1492035424.3988320827, -0.1753,  0.5146, -0.2227,  0.2988,  0.0200,  0.0526
1492035424.3992090225,1492035424.4016408920, -0.1753,  0.5146, -0.2227,  0.2988,  0.0200,  0.0526
1492035424.4020180702,1492035424.4044420719, -0.3156,  0.2474, -0.2344,  0.2978,  0.0426,  0.0979
1492035424.4048180580,1492035424.4072439671, -0.3156,  0.2474, -0.2344,  0.2978,  0.0426,  0.0979
1492035424.4076209068,1492035424.4100580215, -0.3156,  0.2474, -0.2344,  0.2978,  0.0426,  0.0979
1492035424.4104349613,1492035424.4128611088, -0.3156,  0.2474, -0.2344,  0.2040,  0.1391,  0.1587
1492035424.4132380486,1492035424.4156639576, -0.3156,  0.2474, -0.2344,  0.2072,  0.1391,  0.1587
1492035424.4160389900,1492035424.4184639454, -0.3156,  0.2474, -0.2344,  0.2072,  0.1391,  0.1587
1492035424.4188408852,1492035424.4212179184, -0.3156,  0.2474, -0.2344,  0.2072,  0.1391,  0.1587
1492035424.4215850830,1492035424.4238879681, -0.2404,  0.1960, -0.3233,  0.0813,  0.2790,  0.3329
1492035424.4242579937,1492035424.4265570641, -0.2404,  0.1960, -0.3233,  0.0813,  0.2790,  0.3329
1492035424.4269249439,1492035424.4292290211, -0.2404,  0.1960, -0.3233,  0.0813,  0.2790,  0.3329
1492035424.4295980930,1492035424.4320518970, -0.2404,  0.1960, -0.3233,  0.0813,  0.2790,  0.3329
1492035424.4324300289,1492035424.4348549843, -0.2404,  0.1960, -0.3233, -0.1197,  0.0128,  0.4846
1492035424.4352319241,1492035424.4376549721, -0.2404,  0.1960, -0.3233, -0.1197,  0.0128,  0.4846
1492035424.4380300045,1492035424.4404659271, -0.2404,  0.1960, -0.3233, -0.1197,  0.0128,  0.4846
1492035424.4408431053,1492035424.4432709217, -0.2404,  0.1492,  0.5512, -0.1197,  0.0128,  0.5704
1492035424.4436459541,1492035424.4460699558, -0.9859,  0.1492,  0.5512, -0.2813, -0.3221,  0.5704
1492035424.4464459419,1492035424.4488730431, -0.9859,  0.1492,  0.5512, -0.2813, -0.3221,  0.5704
1492035424.4492499828,1492035424.4516830444, -0.9859,  0.1492,  0.5512, -0.2813, -0.3221,  0.5704
1492035424.4520580769,1492035424.4544830322, -0.9859,  0.1492,  0.5512,  0.0460,  0.2221,  0.3055
1492035424.4548580647,1492035424.4572811127, -0.9859,  0.1492,  0.5512,  0.0460,  0.2221,  0.3055
1492035424.4576559067,1492035424.4600949287, -0.9859,  0.1492,  0.5512,  0.0460,  0.2221,  0.3055
1492035424.4604709148,1492035424.4629039764, -0.9859, -0.0149, -0.0715,  0.0460,  0.2221,  0.3055
1492035424.4632809162,1492035424.4657111168, -0.0808, -0.0123, -0.0715, -0.0352,  0.2942,  0.5534
1492035424.4660890102,1492035424.4685149193, -0.0808, -0.0123, -0.0715, -0.0352,  0.2942,  0.5534
1492035424.4688930511,1492035424.4712669849, -0.0808, -0.0123, -0.0715, -0.0352,  0.2942,  0.5534
1492035424.4716351032,1492035424.4739329815, -0.0808, -0.0123, -0.0715, -0.0352,  0.2942,  0.9488
1492035424.4744091034,1492035424.4767138958, -0.0808, -0.0123, -0.0715, -0.3044,  0.2388,  0.9488
1492035424.4770829678,1492035424.4793870449, -0.0808, -0.0123, -0.0715, -0.3044,  0.2388,  0.9488
1492035424.4797561169,1492035424.4821801186, -0.0808, -0.0123, -0.2278, -0.3044,  0.2388,  0.9488
1492035424.4825570583,1492035424.4849839211,  0.1845,  0.6797, -0.2329, -0.0387,  0.5371,  0.6929
1492035424.4853599072,1492035424.4877870083,  0.1845,  0.6797, -0.2329, -0.0356,  0.5371,  0.6929
1492035424.4881629944,1492035424.4906320572,  0.1845,  0.6797, -0.2329, -0.0356,  0.5371,  0.6929
1492035424.4910089970,1492035424.4934320450,  0.1845,  0.6797, -0.2329, -0.0356,  0.5371,  0.6929
1492035424.4938080311,1492035424.4962320328,  0.1845,  0.6797, -0.2329,  0.3456,  0.0640,  0.3791
1492035424.4966070652,1492035424.4990389347,  0.1845,  0.6797, -0.2329,  0.3456,  0.0640,  0.3791
1492035424.4994161129,1492035424.5018479824,  0.1845,  0.6797, -0.2329,  0.3456,  0.0640,  0.3791
1492035424.5022230148,1492035424.5046479702, -0.1807, -0.1134, -0.0860,  0.3456,  0.0640,  0.1212
1492035424.5050249100,1492035424.5074501038, -0.1807, -0.1134, -0.0860,  0.4477, -0.2693,  0.1172
1492035424.5078310966,1492035424.5102660656, -0.1807, -0.1134, -0.0860,  0.4477, -0.2693,  0.1172
1492035424.5106430054,1492035424.5130689144, -0.1807, -0.1134, -0.0860,  0.4477, -0.2693,  0.1172
1492035424.5134460926,1492035424.5158720016, -0.1807, -0.1134, -0.0860,  0.3696, -0.2624, -0.1213
1492035424.5162510872,1492035424.5186760426, -0.1807, -0.1134, -0.0860,  0.3675, -0.2624, -0.1213
1492035424.5190548897,1492035424.5214469433, -0.1807, -0.1134, -0.0860,  0.3675, -0.2624, -0.1213
1492035424.5218191147,1492035424.5241200924, -0.2733,  0.0995,  0.0528,  0.3675, -0.2624, -0.1213
1492035424.5244889259,1492035424.5267889500, -0.2733,  0.0995,  0.0528,  0.2549,  0.1270,  0.1908
1492035424.5271570683,1492035424.5294609070, -0.2733,  0.0995,  0.0528,  0.2549,  0.1270,  0.1908
1492035424.5298309326,1492035424.5321819782, -0.2733,  0.0995,  0.0528,  0.2549,  0.1270,  0.1908
1492035424.5325520039,1492035424.5348529816, -0.2733,  0.0995,  0.0528,  0.2549,  0.1270,  0.1908
1492035424.5352210999,1492035424.5375280380, -0.2733,  0.0995,  0.0528,  0.2237,  0.1182,  0.2170
1492035424.5378959179,1492035424.5402789116, -0.2733,  0.0995,  0.0528,  0.2237,  0.1182,  0.2170
1492035424.5406548977,1492035424.5430829525, -0.2578,  0.1058, -0.0109,  0.2237,  0.1182,  0.2170
1492035424.5434610844,1492035424.5458838940, -0.2578,  0.1058, -0.0109,  0.2237,  0.1182,  0.1779
1492035424.5462620258,1492035424.5486829281, -0.2578,  0.1058, -0.0109,  0.2027,  0.1174,  0.1751
1492035424.5490589142,1492035424.5514929295, -0.2578,  0.1058, -0.0109,  0.2027,  0.1174,  0.1751
1492035424.5518710613,1492035424.5542941093, -0.2578,  0.1058, -0.0109,  0.2027,  0.1174,  0.1751
1492035424.5546720028,1492035424.5570991039, -0.2578,  0.1058, -0.0109,  0.1871,  0.1231,  0.1514
1492035424.5574760437,1492035424.5599050522, -0.2578,  0.1058, -0.0109,  0.1837,  0.1231,  0.1514
1492035424.5603349209,1492035424.5627601147, -0.3039,  0.1301,  0.0477,  0.1837,  0.1231,  0.1514
1492035424.5631361008,1492035424.5655589104, -0.3039,  0.1301,  0.0477,  0.1837,  0.1231,  0.1514
1492035424.5659348965,1492035424.5683619976, -0.3039,  0.1301,  0.0477,  0.1902,  0.1595,  0.1183
1492035424.5687379837,1492035424.5711081028, -0.3039,  0.1301,  0.0477,  0.1902,  0.1595,  0.1183
1492035424.5714778900,1492035424.5737829208, -0.3039,  0.1301,  0.0477,  0.1902,  0.1595,  0.1183
1492035424.5741519928,1492035424.5764560699, -0.3039,  0.1301,  0.0477,  0.1902,  0.1595,  0.1183
1492035424.5768249035,1492035424.5791230202, -0.3039,  0.1301,  0.0477,  0.1809,  0.1432,  0.0628
1492035424.5794899464,1492035424.5819060802, -0.3039,  0.0520,  0.0880,  0.1809,  0.1432,  0.0628
1492035424.5822820663,1492035424.5847039223, -0.4049,  0.0500,  0.0880,  0.1809,  0.1432,  0.0628
1492035424.5850799084,1492035424.5875079632, -0.4049,  0.0500,  0.0880,  0.1809,  0.1041, -0.0651
1492035424.5878860950,1492035424.5903239250, -0.4049,  0.0500,  0.0880,  0.1198,  0.1051, -0.0651
1492035424.5908079147,1492035424.5932381153, -0.4049,  0.0500,  0.0880,  0.1198,  0.1051, -0.0651
1492035424.5936150551,1492035424.5960431099, -0.4049,  0.0500,  0.0880,  0.1198,  0.1051, -0.0651
1492035424.5964219570,1492035424.5988469124, -0.4049,  0.0500,  0.0880,  0.1234,  0.1320, -0.0215
1492035424.5992240906,1492035424.6016640663, -0.4049, -0.0203,  0.1603,  0.1234,  0.1320, -0.0215
1492035424.6020419598,1492035424.6044719219, -0.4790, -0.0230,  0.1603,  0.1234,  0.1320, -0.0215
1492035424.6048491001,1492035424.6072731018, -0.4790, -0.0230,  0.1603,  0.1234,  0.1320, -0.0215
1492035424.6076509953,1492035424.6100869179, -0.4790, -0.0230,  0.1603,  0.0721,  0.1373,  0.0736
1492035424.6104640961,1492035424.6128981113, -0.4790, -0.0230,  0.1603,  0.0721,  0.1373,  0.0736
1492035424.6132740974,1492035424.6156980991, -0.4790, -0.0230,  0.1603,  0.0721,  0.1373,  0.0736
1492035424.6160740852,1492035424.6184990406, -0.4790, -0.0230,  0.1603,  0.0721,  0.1143,  0.0933
1492035424.6188759804,1492035424.6212608814, -0.4790, -0.0230,  0.2675,  0.0713,  0.1143,  0.0933
1492035424.6216309071,1492035424.6239418983, -0.3434, -0.1914,  0.2675,  0.0713,  0.1143,  0.0933
1492035424.6243109703,1492035424.6266200542, -0.3434, -0.1914,  0.2675,  0.0713,  0.1143,  0.0933
1492035424.6269888878,1492035424.6292889118, -0.3434, -0.1914,  0.2675,  0.1071,  0.0945,  0.0732
1492035424.6296579838,1492035424.6319720745, -0.3434, -0.1914,  0.2675,  0.1071,  0.0945,  0.0732
1492035424.6323440075,1492035424.6346440315, -0.3434, -0.1914,  0.2675,  0.1071,  0.0945,  0.0732
1492035424.6350150108,1492035424.6373178959, -0.3434, -0.1914,  0.2675,  0.1071,  0.0945,  0.0732
1492035424.6376869678,1492035424.6400299072, -0.3434, -0.1914,  0.2675,  0.2356,  0.0506, -0.0004
1492035424.6403980255,1492035424.6428270340, -0.3053, -0.1769,  0.0788,  0.2356,  0.0506, -0.0004
1492035424.6432030201,1492035424.6456251144, -0.3053, -0.1769,  0.0788,  0.2356,  0.0506, -0.0004
1492035424.6460011005,1492035424.6484310627, -0.3053, -0.1769,  0.0788,  0.2356,  0.0506, -0.0004
1492035424.6488070488,1492035424.6512420177, -0.3053, -0.1769,  0.0788,  0.4593,  0.0571, -0.0452
1492035424.6516160965,1492035424.6540420055, -0.3053, -0.1769,  0.0788,  0.4593,  0.0571, -0.0452
1492035424.6544198990,1492035424.6568460464, -0.3053, -0.1769,  0.0788,  0.4593,  0.0571, -0.0452
1492035424.6572229862,1492035424.6596510410, -0.3053, -0.1769,  0.0788,  0.4593,  0.1055,  0.0295
1492035424.6600370407,1492035424.6624679565, -0.2377,  0.1995, -0.0786,  0.3889,  0.1055,  0.0295
1492035424.6628460884,1492035424.6652729511, -0.2377,  0.1995, -0.0786,  0.3889,  0.1055,  0.0295
1492035424.6656498909,1492035424.6680760384, -0.2377,  0.1995, -0.0786,  0.3889,  0.1055,  0.0295
1492035424.6684510708,1492035424.6708490849, -0.2377,  0.1995, -0.0786,  0.2318,  0.1233,  0.1451
1492035424.6712169647,1492035424.6735210419, -0.2377,  0.1995, -0.0786,  0.2318,  0.1233,  0.1451
1492035424.6738929749,1492035424.6761980057, -0.2377,  0.1995, -0.0786,  0.2318,  0.1233,  0.1451
1492035424.6765689850,1492035424.6788771152, -0.2377,  0.1995, -0.0786,  0.2318,  0.1233,  0.1451
1492035424.6792440414,1492035424.6816771030, -0.1999,  0.1235,  0.1153,  0.1720,  0.1200,  0.1593
1492035424.6820518970,1492035424.6844809055, -0.1999,  0.1235,  0.1153,  0.1720,  0.1200,  0.1593
1492035424.6848568916,1492035424.6872859001, -0.1999,  0.1235,  0.1153,  0.1720,  0.1200,  0.1593
1492035424.6876618862,1492035424.6900980473, -0.1999,  0.1235,  0.1153,  0.1720,  0.1200,  0.1781
1492035424.6904740334,1492035424.6928970814, -0.1999,  0.1235,  0.1153,  0.1603,  0.1987,  0.1781
1492035424.6932721138,1492035424.6956949234, -0.1999,  0.1235,  0.1153,  0.1603,  0.1987,  0.1781
1492035424.6960721016,1492035424.6984961033, -0.1999,  0.1235,  0.1153,  0.1603,  0.1987,  0.1781
1492035424.6988708973,1492035424.7013080120, -0.1999, -0.1413,  0.1127,  0.1994,  0.1821,  0.1723
1492035424.7016849518,1492035424.7041130066, -0.1971, -0.1413,  0.1127,  0.1994,  0.1821,  0.1723
1492035424.7044889927,1492035424.7069149017, -0.1971, -0.1413,  0.1127,  0.1994,  0.1821,  0.1723
1492035424.7073960304,1492035424.7098250389, -0.1971, -0.1413,  0.1127,  0.1994,  0.1821,  0.1723
1492035424.7102088928,1492035424.7126340866, -0.1971, -0.1413,  0.1127,  0.1343,  0.1670,  0.2621
1492035424.7130091190,1492035424.7154350281, -0.1971, -0.1413,  0.1127,  0.1343,  0.1670,  0.2621
1492035424.7158100605,1492035424.7182359695, -0.1971, -0.1413,  0.1127,  0.1343,  0.1670,  0.2621
1492035424.7186100483,1492035424.7210021019, -0.1111, -0.0644,  0.0696,  0.1343,  0.1670,  0.2973
1492035424.7213740349,1492035424.7236769199, -0.1103, -0.0644,  0.0696, -0.1012,  0.2141,  0.2973
1492035424.7240459919,1492035424.7263538837, -0.1103, -0.0644,  0.0696, -0.1012,  0.2141,  0.2973
1492035424.7267239094,1492035424.7290270329, -0.1103, -0.0644,  0.0696, -0.1012,  0.2141,  0.2973
1492035424.7293980122,1492035424.7318530083, -0.1103, -0.0644,  0.0696, -0.1403,  0.1979,  0.2780
1492035424.7322289944,1492035424.7346560955, -0.1103, -0.0644,  0.0696, -0.1364,  0.1979,  0.2780
1492035424.7350330353,1492035424.7375209332, -0.1103, -0.0644,  0.0696, -0.1364,  0.1979,  0.2780
1492035424.7379009724,1492035424.7403309345, -0.1103, -0.1347,  0.0796, -0.1364,  0.1979,  0.2780
1492035424.7407059669,1492035424.7431020737, -0.1940, -0.1378,  0.0796, -0.0551,  0.1689,  0.2656
1492035424.7434790134,1492035424.7458739281, -0.1940, -0.1378,  0.0796, -0.0551,  0.1689,  0.2656
1492035424.7462980747,1492035424.7487308979, -0.1940, -0.1378,  0.0796, -0.0551,  0.1689,  0.2656
1492035424.7491080761,1492035424.7515220642, -0.1940, -0.1378,  0.0796, -0.0551,  0.1689,  0.2656
1492035424.7518980503,1492035424.7542870045, -0.1940, -0.1378,  0.0796, -0.0680,  0.1626,  0.2986
1492035424.7546620369,1492035424.7571270466, -0.1940, -0.1378,  0.0796, -0.0680,  0.1626,  0.2986
1492035424.7575049400,1492035424.7599229813, -0.1940, -0.1378,  0.0786, -0.0680,  0.1626,  0.2986
1492035424.7603509426,1492035424.7626500130, -0.2936, -0.1491,  0.0786, -0.1149,  0.1945,  0.3670
1492035424.7630209923,1492035424.7653219700, -0.2936, -0.1491,  0.0786, -0.1153,  0.1945,  0.3670
1492035424.7656910419,1492035424.7680699825, -0.2936, -0.1491,  0.0786, -0.1153,  0.1945,  0.3670
1492035424.7684400082,1492035424.7707879543, -0.2936, -0.1491,  0.0786, -0.1153,  0.1945,  0.3670
1492035424.7711598873,1492035424.7734611034, -0.2936, -0.1491,  0.0786, -0.1055,  0.2192,  0.4060
1492035424.7738299370,1492035424.7761290073, -0.2936, -0.1491,  0.0786, -0.1055,  0.2192,  0.4060
1492035424.7764990330,1492035424.7788000107, -0.2936, -0.1491,  0.0786, -0.1055,  0.2192,  0.4060
1492035424.7791690826,1492035424.7815589905, -0.3401, -0.1147,  0.0880, -0.1055,  0.2192,  0.4060
1492035424.7819368839,1492035424.7843670845, -0.3401, -0.1147,  0.0880, -0.0678,  0.2473,  0.4133
1492035424.7847440243,1492035424.7871670723, -0.3401, -0.1147,  0.0880, -0.0678,  0.2473,  0.4133
1492035424.7875459194,1492035424.7899720669, -0.3401, -0.1147,  0.0880, -0.0678,  0.2473,  0.4133
1492035424.7903919220,1492035424.7928190231, -0.3401, -0.1147,  0.0880, -0.0678,  0.2473,  0.4055
1492035424.7931959629,1492035424.7956199646, -0.3401, -0.1147,  0.0880, -0.0044,  0.2658,  0.3990
1492035424.7959990501,1492035424.7984249592, -0.3401, -0.1147,  0.0880, -0.0044,  0.2658,  0.3990
1492035424.7988030910,1492035424.8012380600, -0.3058, -0.0782,  0.0982, -0.0044,  0.2658,  0.3990
1492035424.8016149998,1492035424.8040399551, -0.3058, -0.0782,  0.0982,  0.0659,  0.2679,  0.3794
1492035424.8044159412,1492035424.8068358898, -0.3058, -0.0782,  0.0982,  0.0685,  0.2679,  0.3794
1492035424.8072121143,1492035424.8096399307, -0.3058, -0.0782,  0.0982,  0.0685,  0.2679,  0.3794
1492035424.8100249767,1492035424.8124499321, -0.3058, -0.0782,  0.0982,  0.0685,  0.2679,  0.3794
1492035424.8128259182,1492035424.8152511120, -0.3058, -0.0782,  0.0982,  0.1486,  0.2642,  0.3626
1492035424.8156280518,1492035424.8180561066, -0.3058, -0.0782,  0.0982,  0.1486,  0.2642,  0.3626
1492035424.8184320927,1492035424.8208320141, -0.3132, -0.0611,  0.0921,  0.1486,  0.2642,  0.3626
1492035424.8212010860,1492035424.8235039711, -0.3132, -0.0611,  0.0921,  0.1486,  0.2642,  0.3626
1492035424.8239810467,1492035424.8262870312, -0.3132, -0.0611,  0.0921,  0.2239,  0.2745,  0.3374
1492035424.8266580105,1492035424.8289630413, -0.3132, -0.0611,  0.0921,  0.2239,  0.2745,  0.3374
1492035424.8293321133,1492035424.8317360878, -0.3132, -0.0611,  0.0921,  0.2239,  0.2745,  0.3374
1492035424.8321130276,1492035424.8345348835, -0.3132, -0.0611,  0.0921,  0.2239,  0.3135,  0.3048
1492035424.8349099159,1492035424.8373351097, -0.3132, -0.0611,  0.0921,  0.2548,  0.3151,  0.3048
1492035424.8377130032,1492035424.8401401043, -0.3916, -0.1303,  0.0095,  0.2548,  0.3151,  0.3048
1492035424.8405170441,1492035424.8429410458, -0.3916, -0.1303,  0.0095,  0.2548,  0.3151,  0.3048
1492035424.8433160782,1492035424.8457438946, -0.3916, -0.1303,  0.0095,  0.2000,  0.3333,  0.2213
1492035424.8461220264,1492035424.8485510349, -0.3916, -0.1303,  0.0095,  0.2000,  0.3333,  0.2213
1492035424.8489279747,1492035424.8513588905, -0.3916, -0.1303,  0.0095,  0.2000,  0.3333,  0.2213
1492035424.8517339230,1492035424.8541629314, -0.3916, -0.1303,  0.0095,  0.2000,  0.3333,  0.2213
1492035424.8545389175,1492035424.8569641113, -0.3916, -0.1303,  0.0095,  0.0552,  0.2722,  0.1263
1492035424.8573410511,1492035424.8597609997, -0.2666, -0.1144,  0.0743,  0.0552,  0.2722,  0.1263
1492035424.8601450920,1492035424.8625690937, -0.2693, -0.1144,  0.0743,  0.0552,  0.2722,  0.1263
1492035424.8629438877,1492035424.8653709888, -0.2693, -0.1144,  0.0743,  0.0552,  0.2332,  0.0765
1492035424.8657469749,1492035424.8681790829, -0.2693, -0.1144,  0.0743, -0.1061,  0.2283,  0.0765
1492035424.8685569763,1492035424.8709781170, -0.2693, -0.1144,  0.0743, -0.1061,  0.2283,  0.0765
1492035424.8713479042,1492035424.8736529350, -0.2693, -0.1144,  0.0743, -0.1061,  0.2283,  0.0765
1492035424.8740229607,1492035424.8763260841, -0.2693, -0.1144,  0.0743, -0.1987,  0.2038,  0.0094
1492035424.8766961098,1492035424.8789980412, -0.2693, -0.0597, -0.0070, -0.1987,  0.2038,  0.0094
1492035424.8793680668,1492035424.8817679882, -0.1492, -0.0569, -0.0070, -0.1987,  0.2038,  0.0094
1492035424.8821470737,1492035424.8845689297, -0.1492, -0.0569, -0.0070, -0.1987,  0.2038,  0.0094
1492035424.8849461079,1492035424.8873679638, -0.1492, -0.0569, -0.0070, -0.2587,  0.1651, -0.0768
1492035424.8877449036,1492035424.8902289867, -0.1492, -0.0569, -0.0070, -0.2587,  0.1651, -0.0768
1492035424.8906071186,1492035424.8930320740, -0.1492, -0.0569, -0.0070, -0.2587,  0.1651, -0.0768
1492035424.8934090137,1492035424.8958361149, -0.1492, -0.0569, -0.0070, -0.2587,  0.1651, -0.1705
1492035424.8962130547,1492035424.8986380100, -0.1492, -0.0569,  0.0194, -0.3115,  0.1085, -0.1705
1492035424.8990149498,1492035424.9014499187, -0.0534,  0.0573,  0.0194, -0.3115,  0.1085, -0.1705
1492035424.9018249512,1492035424.9042520523, -0.0534,  0.0573,  0.0194, -0.3115,  0.1085, -0.1705
1492035424.9046299458,1492035424.9070589542, -0.0534,  0.0573,  0.0194, -0.2876,  0.0539, -0.2874
1492035424.9074349403,1492035424.9098598957, -0.0534,  0.0573,  0.0194, -0.2876,  0.0539, -0.2874
1492035424.9102458954,1492035424.9126749039, -0.0534,  0.0573,  0.0194, -0.2876,  0.0539, -0.2874
1492035424.9130508900,1492035424.9154820442, -0.0534,  0.0573,  0.0194, -0.2876,  0.0539, -0.2874
1492035424.9158570766,1492035424.9182898998, -0.0534,  0.0573,  0.0585, -0.2402,  0.0037, -0.4079
1492035424.9186658859,1492035424.9210569859, -0.0037,  0.0739,  0.0606, -0.2402,  0.0037, -0.4079
1492035424.9214279652,1492035424.9237310886, -0.0037,  0.0739,  0.0606, -0.2402,  0.0037, -0.4079
1492035424.9241011143,1492035424.9280600548, -0.0037,  0.0739,  0.0606, -0.2402,  0.0037, -0.4938
1492035424.9284460545,1492035424.9308550358, -0.0037,  0.0739,  0.0606, -0.2249, -0.0363, -0.4961
1492035424.9312269688,1492035424.9335210323, -0.0037,  0.0739,  0.0606, -0.2249, -0.0363, -0.4961
1492035424.9338901043,1492035424.9361879826, -0.0037,  0.0739,  0.0606, -0.2249, -0.0363, -0.4961
1492035424.9365570545,1492035424.9388608932, -0.0271,  0.1052,  0.0878, -0.2150, -0.0780, -0.5675
1492035424.9393610954,1492035424.9416708946, -0.0304,  0.1052,  0.0878, -0.2150, -0.0780, -0.5675
1492035424.9420399666,1492035424.9443399906, -0.0304,  0.1052,  0.0878, -0.2150, -0.0780, -0.5675
1492035424.9447119236,1492035424.9470100403, -0.0304,  0.1052,  0.0878, -0.2150, -0.0780, -0.5675
1492035424.9473819733,1492035424.9496760368, -0.0304,  0.1052,  0.0878, -0.1867, -0.1168, -0.6348
1492035424.9500598907,1492035424.9523561001, -0.0304,  0.1052,  0.0878, -0.1867, -0.1168, -0.6348
1492035424.9527239799,1492035424.9550240040, -0.0304,  0.1052,  0.0878, -0.1867, -0.1168, -0.6348
1492035424.9553930759,1492035424.9576909542, -0.0304,  0.1052,  0.0878, -0.1867, -0.1168, -0.6866
1492035424.9580590725,1492035424.9604389668, -0.0712,  0.0831,  0.0775, -0.1361, -0.1499, -0.6866
1492035424.9608170986,1492035424.9632439613, -0.0712,  0.0831,  0.0775, -0.1361, -0.1499, -0.6866
1492035424.9636189938,1492035424.9660449028, -0.0712,  0.0831,  0.0775, -0.1361, -0.1499, -0.6866
1492035424.9664208889,1492035424.9688460827, -0.0712,  0.0831,  0.0775, -0.1075, -0.1800, -0.7177
1492035424.9692249298,1492035424.9715790749, -0.0712,  0.0831,  0.0775, -0.1075, -0.1800, -0.7177
1492035424.9719500542,1492035424.9742500782, -0.0712,  0.0831,  0.0775, -0.1075, -0.1800, -0.7177
1492035424.9746189117,1492035424.9769210815, -0.0712,  0.0831,  0.0775, -0.1075, -0.1800, -0.7177
1492035424.9772899151,1492035424.9795899391, -0.0912,  0.0273,  0.0843, -0.1112, -0.2134, -0.7418
1492035424.9799590111,1492035424.9823019505, -0.0912,  0.0273,  0.0843, -0.1112, -0.2134, -0.7418
1492035424.9826719761,1492035424.9849710464, -0.0912,  0.0273,  0.0843, -0.1112, -0.2134, -0.7418
1492035424.9853429794,1492035424.9876420498, -0.0912,  0.0273,  0.0843, -0.1112, -0.2134, -0.7418
1492035424.9880108833,1492035424.9903359413, -0.0912,  0.0273,  0.0843, -0.1205, -0.2569, -0.7664
1492035424.9907128811,1492035424.9931440353, -0.0912,  0.0273,  0.0843, -0.1205, -0.2569, -0.7664
1492035424.9935200214,1492035424.9959449768, -0.0912,  0.0273,  0.0843, -0.1205, -0.2569, -0.7664
1492035424.9963219166,1492035424.9987480640, -0.1307,  0.0612,  0.0711, -0.1205, -0.2569, -0.7847
1492035424.9991250038,1492035425.0015559196, -0.1307,  0.0612,  0.0711, -0.1189, -0.3022, -0.7847
1492035425.0019319057,1492035425.0043599606, -0.1307,  0.0612,  0.0711, -0.1189, -0.3022, -0.7847
1492035425.0047380924,1492035425.0071630478, -0.1307,  0.0612,  0.0711, -0.1189, -0.3022, -0.7847
1492035425.0075399876,1492035425.0099649429, -0.1307,  0.0612,  0.0711, -0.0965, -0.3477, -0.7879
1492035425.0104060173,1492035425.0128300190, -0.1307,  0.0612,  0.0711, -0.0965, -0.3477, -0.7879
1492035425.0132060051,1492035425.0156340599, -0.1307,  0.0612,  0.0711, -0.0965, -0.3477, -0.7879
1492035425.0160090923,1492035425.0184359550, -0.1932,  0.0756,  0.0905, -0.0965, -0.3477, -0.7879
1492035425.0188140869,1492035425.0212540627, -0.1913,  0.0756,  0.0905, -0.0810, -0.3877, -0.7765
1492035425.0216300488,1492035425.0240550041, -0.1913,  0.0756,  0.0905, -0.0810, -0.3877, -0.7765
1492035425.0244328976,1492035425.0268568993, -0.1913,  0.0756,  0.0905, -0.0810, -0.3877, -0.7765
1492035425.0272340775,1492035425.0296599865, -0.1913,  0.0756,  0.0905, -0.0810, -0.3877, -0.7571
1492035425.0300440788,1492035425.0323469639, -0.1913,  0.0756,  0.0905, -0.0789, -0.4212, -0.7571
1492035425.0327160358,1492035425.0350220203, -0.1913,  0.0756,  0.0905, -0.0789, -0.4212, -0.7571
1492035425.0353899002,1492035425.0376911163, -0.1913,  0.0807,  0.0718, -0.0789, -0.4212, -0.7571
1492035425.0380589962,1492035425.0404400826, -0.2513,  0.0807,  0.0718, -0.0789, -0.4462, -0.7432
1492035425.0408160686,1492035425.0432400703, -0.2513,  0.0807,  0.0718, -0.0654, -0.4462, -0.7432
1492035425.0436151028,1492035425.0460419655, -0.2513,  0.0807,  0.0718, -0.0654, -0.4462, -0.7432
1492035425.0464189053,1492035425.0488440990, -0.2513,  0.0807,  0.0718, -0.0654, -0.4462, -0.7432
1492035425.0492200851,1492035425.0516560078, -0.2513,  0.0807,  0.0718, -0.0396, -0.4653, -0.7291
1492035425.0520310402,1492035425.0544579029, -0.2513,  0.0807,  0.0718, -0.0396, -0.4653, -0.7291
1492035425.0549499989,1492035425.0573749542, -0.2513,  0.0807,  0.0367, -0.0396, -0.4653, -0.7291
1492035425.0577490330,1492035425.0602130890, -0.3076,  0.1505,  0.0367, -0.0396, -0.4653, -0.7291
1492035425.0605900288,1492035425.0630159378, -0.3076,  0.1505,  0.0367, -0.0173, -0.4725, -0.7095
1492035425.0633919239,1492035425.0658209324, -0.3076,  0.1505,  0.0367, -0.0173, -0.4725, -0.7095
1492035425.0661969185,1492035425.0686221123, -0.3076,  0.1505,  0.0367, -0.0173, -0.4725, -0.7095
1492035425.0689990520,1492035425.0713660717, -0.3076,  0.1505,  0.0367,  0.0061, -0.4550, -0.6944
1492035425.0717360973,1492035425.0740349293, -0.3076,  0.1505,  0.0367,  0.0047, -0.4550, -0.6944
1492035425.0744059086,1492035425.0767059326, -0.3076,  0.1505, -0.1039,  0.0047, -0.4550, -0.6944
1492035425.0770759583,1492035425.0793759823, -0.4640,  0.2405, -0.1052,  0.0047, -0.4550, -0.6944
1492035425.0797450542,1492035425.0821659565, -0.4640,  0.2405, -0.1052,  0.0347, -0.3992, -0.6621
1492035425.0825428963,1492035425.0849690437, -0.4640,  0.2405, -0.1052,  0.0347, -0.3992, -0.6621
1492035425.0853469372,1492035425.0877680779, -0.4640,  0.2405, -0.1052,  0.0347, -0.3992, -0.6621
1492035425.0881440639,1492035425.0906169415, -0.4640,  0.2405, -0.1052,  0.0347, -0.3992, -0.6621
1492035425.0909919739,1492035425.0934190750, -0.4640,  0.2405, -0.1052,  0.0276, -0.3218, -0.6001
1492035425.0937979221,1492035425.0962231159, -0.4640,  0.2405, -0.1052,  0.0276, -0.3218, -0.6001
1492035425.0966000557,1492035425.0990240574, -0.5644,  0.4691, -0.1532,  0.0276, -0.3218, -0.6001
1492035425.0994000435,1492035425.1018331051, -0.5644,  0.4691, -0.1532,  0.0276, -0.3218, -0.5349
1492035425.1022090912,1492035425.1046330929, -0.5644,  0.4691, -0.1532,  0.0132, -0.2435, -0.5349
1492035425.1050119400,1492035425.1074419022, -0.5644,  0.4691, -0.1532,  0.0132, -0.2435, -0.5349
1492035425.1078169346,1492035425.1102590561, -0.5644,  0.4691, -0.1532,  0.0132, -0.2435, -0.5349
1492035425.1106350422,1492035425.1130599976, -0.5644,  0.4691, -0.1532,  0.0363, -0.1971, -0.4167
1492035425.1134390831,1492035425.1158649921, -0.5644,  0.4691, -0.1532,  0.0363, -0.1971, -0.4167
1492035425.1162400246,1492035425.1186680794, -0.3759,  0.5905, -0.0489,  0.0363, -0.1971, -0.4167
1492035425.1190440655,1492035425.1214148998, -0.3759,  0.5905, -0.0489,  0.0363, -0.1971, -0.4167
1492035425.1217820644,1492035425.1240859032, -0.3759,  0.5905, -0.0489, -0.0009, -0.1452, -0.2607
1492035425.1244568825,1492035425.1267559528, -0.3759,  0.5905, -0.0489, -0.0009, -0.1452, -0.2607
1492035425.1271240711,1492035425.1294240952, -0.3759,  0.5905, -0.0489, -0.0009, -0.1452, -0.2607
1492035425.1297929287,1492035425.1321420670, -0.3759,  0.5905, -0.0489, -0.0009, -0.1452, -0.2607
1492035425.1325099468,1492035425.1348099709, -0.3759,  0.5905, -0.0489, -0.0205, -0.0357, -0.1294
1492035425.1351790428,1492035425.1374840736, -0.1825,  0.6237, -0.3071, -0.0205, -0.0357, -0.1294
1492035425.1378540993,1492035425.1401751041, -0.1825,  0.6237, -0.3071, -0.0205, -0.0357, -0.1294
1492035425.1405539513,1492035425.1429820061, -0.1825,  0.6237, -0.3071, -0.0205, -0.0357, -0.0286
1492035425.1433570385,1492035425.1457850933, -0.1825,  0.6237, -0.3071,  0.0860,  0.0141, -0.0286
1492035425.1461598873,1492035425.1485888958, -0.1825,  0.6237, -0.3071,  0.0860,  0.0141, -0.0286
1492035425.1489670277,1492035425.1514410973, -0.1825,  0.6237, -0.3071,  0.0860,  0.0141, -0.0286
1492035425.1518170834,1492035425.1542448997, -0.1825,  0.6237, -0.3071,  0.1336,  0.0132,  0.0470
1492035425.1546199322,1492035425.1570470333, -0.1982,  0.4520, -0.2638,  0.1336,  0.0132,  0.0470
1492035425.1574239731,1492035425.1598520279, -0.2006,  0.4520, -0.2638,  0.1336,  0.0132,  0.0470
1492035425.1602380276,1492035425.1626670361, -0.2006,  0.4520, -0.2638,  0.1336,  0.0132,  0.0470
1492035425.1630439758,1492035425.1654729843, -0.2006,  0.4520, -0.2638,  0.1369,  0.0552,  0.1233
1492035425.1658499241,1492035425.1682770252, -0.2006,  0.4520, -0.2638,  0.1369,  0.0552,  0.1233
1492035425.1686549187,1492035425.1710879803, -0.2006,  0.4520, -0.2638,  0.1369,  0.0552,  0.1233
1492035425.1715729237,1492035425.1740009785, -0.2006,  0.4520, -0.2638,  0.1369,  0.0552,  0.1630
1492035425.1743769646,1492035425.1768081188, -0.2865,  0.1942, -0.2146,  0.1314,  0.0563,  0.1630
1492035425.1771841049,1492035425.1796090603, -0.2831,  0.1942, -0.2146,  0.1314,  0.0563,  0.1630
1492035425.1800189018,1492035425.1823248863, -0.2831,  0.1942, -0.2146,  0.1314,  0.0563,  0.1630
1492035425.1826910973,1492035425.1849899292, -0.2831,  0.1942, -0.2146,  0.1303,  0.1825,  0.2332
1492035425.1853590012,1492035425.1876580715, -0.2831,  0.1942, -0.2146,  0.1303,  0.1825,  0.2332
1492035425.1880280972,1492035425.1903569698, -0.2831,  0.1942, -0.2146,  0.1303,  0.1825,  0.2332
1492035425.1907329559,1492035425.1931641102, -0.2831,  0.1942, -0.2146,  0.1303,  0.1825,  0.2332
1492035425.1935400963,1492035425.1959619522, -0.2831,  0.1942,  0.0168,  0.0020,  0.2473,  0.4082
1492035425.1963400841,1492035425.1987619400, -0.2943,  0.1216,  0.0168,  0.0020,  0.2473,  0.4082
1492035425.1991391182,1492035425.2015709877, -0.2943,  0.1216,  0.0168,  0.0020,  0.2473,  0.4082
1492035425.2019500732,1492035425.2043769360, -0.2943,  0.1216,  0.0168,  0.0020,  0.2473,  0.4238
1492035425.2047529221,1492035425.2071769238, -0.2943,  0.1216,  0.0168, -0.1582, -0.2531,  0.4294
1492035425.2075550556,1492035425.2100179195, -0.2943,  0.1216,  0.0168, -0.1582, -0.2531,  0.4294
1492035425.2103950977,1492035425.2128210068, -0.2943,  0.1216,  0.0168, -0.1582, -0.2531,  0.4294
1492035425.2131989002,1492035425.2156209946, -0.2943,  0.1216,  0.1105, -0.0759, -0.2013,  0.5659
1492035425.2159988880,1492035425.2184240818, -0.9887,  0.0603,  0.1152, -0.0759, -0.2013,  0.5659
1492035425.2188010216,1492035425.2212378979, -0.9887,  0.0603,  0.1152, -0.0759, -0.2013,  0.5659
1492035425.2216169834,1492035425.2240419388, -0.9887,  0.0603,  0.1152, -0.0759, -0.2013,  0.5659
1492035425.2244191170,1492035425.2268431187, -0.9887,  0.0603,  0.1152,  0.0073,  0.3435,  0.4277
1492035425.2272200584,1492035425.2296481133, -0.9887,  0.0603,  0.1152,  0.0073,  0.3435,  0.4277
1492035425.2300310135,1492035425.2323360443, -0.9887,  0.0603,  0.1152,  0.0073,  0.3435,  0.4277
1492035425.2327060699,1492035425.2350089550, -0.9887,  0.0603,  0.1152,  0.0073,  0.3435,  0.4277
1492035425.2353770733,1492035425.2376749516,  0.0512,  0.3078,  0.0430, -0.0959,  0.2360,  0.7239
1492035425.2380440235,1492035425.2404119968,  0.0512,  0.3078,  0.0430, -0.0959,  0.2360,  0.7239
1492035425.2407889366,1492035425.2432179451,  0.0512,  0.3078,  0.0430, -0.0959,  0.2360,  0.7239
1492035425.2435929775,1492035425.2460210323,  0.0512,  0.3078,  0.0430, -0.0959,  0.2751,  0.9099
1492035425.2463970184,1492035425.2488179207,  0.0512,  0.3078,  0.0430, -0.1715,  0.2764,  0.9099
1492035425.2491939068,1492035425.2516350746,  0.0512,  0.3078,  0.0430, -0.1715,  0.2764,  0.9099
1492035425.2520101070,1492035425.2544369698,  0.0512,  0.3078,  0.0430, -0.1715,  0.2764,  0.9099
1492035425.2548151016,1492035425.2572419643, -0.0297,  0.4346, -0.4636,  0.0879,  0.5856,  0.4998
1492035425.2576179504,1492035425.2600600719, -0.0297,  0.4346, -0.4636,  0.0879,  0.5856,  0.4998
1492035425.2604279518,1492035425.2627289295, -0.0297,  0.4346, -0.4636,  0.0879,  0.5856,  0.4998
1492035425.2630980015,1492035425.2654008865, -0.0297,  0.4346, -0.4636,  0.0879,  0.5856,  0.4998
1492035425.2657680511,1492035425.2680668831, -0.0297,  0.4346, -0.4636,  0.3674, -0.0631,  0.3900
1492035425.2684381008,1492035425.2708361149, -0.0297,  0.4346, -0.4636,  0.3674, -0.0631,  0.3900
1492035425.2712130547,1492035425.2736339569, -0.0297,  0.4346, -0.4636,  0.3674, -0.0631,  0.3900
1492035425.2740099430,1492035425.2764360905, -0.1912, -0.0909, -0.0021,  0.3674, -0.0631,  0.1400
1492035425.2768130302,1492035425.2792398930, -0.1912, -0.0909, -0.0021,  0.3185, -0.3989,  0.1400
1492035425.2796189785,1492035425.2819540501, -0.1912, -0.0909, -0.0021,  0.3185, -0.3989,  0.1400
1492035425.2823240757,1492035425.2846269608, -0.1912, -0.0909, -0.0021,  0.3185, -0.3989,  0.1400
1492035425.2849950790,1492035425.2872989178, -0.1912, -0.0909, -0.0021,  0.3185, -0.2323, -0.0907
1492035425.2877740860,1492035425.2900950909, -0.1912, -0.0909, -0.0021,  0.3516, -0.2323, -0.0907
1492035425.2904720306,1492035425.2929000854, -0.1912, -0.0909, -0.0021,  0.3516, -0.2323, -0.0907
1492035425.2932770252,1492035425.2957069874, -0.3474,  0.1440, -0.0967,  0.3516, -0.2323, -0.0907
1492035425.2960829735,1492035425.2985079288, -0.3451,  0.1440, -0.0967,  0.3243,  0.2184,  0.2089
1492035425.2988839149,1492035425.3013119698, -0.3451,  0.1440, -0.0967,  0.3243,  0.2184,  0.2089
1492035425.3016889095,1492035425.3041150570, -0.3451,  0.1440, -0.0967,  0.3243,  0.2184,  0.2089
1492035425.3044910431,1492035425.3069219589, -0.3451,  0.1440, -0.0967,  0.3243,  0.2184,  0.2089
1492035425.3072979450,1492035425.3097219467, -0.3451,  0.1440, -0.0967,  0.2635,  0.2200,  0.2573
1492035425.3101089001,1492035425.3125369549, -0.3451,  0.1440, -0.0967,  0.2635,  0.2200,  0.2573
1492035425.3129150867,1492035425.3153460026, -0.3451,  0.1112, -0.0889,  0.2635,  0.2200,  0.2573
1492035425.3157219887,1492035425.3181500435, -0.2467,  0.1112, -0.0889,  0.2635,  0.1575,  0.1743
