timestamp_before,timestamp_after,accel_x,accel_y,accel_z,gyro_x,gyro_y,gryo_z
1492035166.3088510036,1492035166.3112409115, -0.1833, -0.0037,  0.0474,  0.0125,  0.0142, -0.0139
1492035166.3116979599,1492035166.3140010834, -0.2116, -0.0037,  0.0474,  0.0125,  0.0142, -0.0139
1492035166.3143711090,1492035166.3166720867, -0.2116, -0.0037,  0.0474,  0.0125,  0.0142, -0.0139
1492035166.3170399666,1492035166.3193430901, -0.2116, -0.0037,  0.0474,  0.0125,  0.0142, -0.0139
1492035166.3197140694,1492035166.3221380711, -0.2116, -0.0037,  0.0474,  0.0156,  0.0141, -0.0132
1492035166.3225090504,1492035166.3248140812, -0.1836, -0.0003,  0.0257,  0.0156,  0.0141, -0.0132
1492035166.3251829147,1492035166.3274810314, -0.1836, -0.0003,  0.0257,  0.0156,  0.0141, -0.0132
1492035166.3278501034,1492035166.3302659988, -0.1836, -0.0003,  0.0257,  0.0156,  0.0141, -0.0132
1492035166.3306369781,1492035166.3329420090, -0.1836, -0.0003,  0.0257,  0.0150,  0.0137, -0.0121
1492035166.3333098888,1492035166.3356049061, -0.1836, -0.0003,  0.0257,  0.0150,  0.0137, -0.0121
1492035166.3359758854,1492035166.3382709026, -0.1836, -0.0003,  0.0257,  0.0150,  0.0137, -0.0121
1492035166.3386399746,1492035166.3410129547, -0.1836, -0.0003,  0.0257,  0.0150,  0.0137, -0.0114
1492035166.3413820267,1492035166.3436849117, -0.1855,  0.0020,  0.0252,  0.0146,  0.0125, -0.0114
1492035166.3440530300,1492035166.3463559151, -0.1855,  0.0020,  0.0252,  0.0146,  0.0125, -0.0114
1492035166.3467259407,1492035166.3491830826, -0.1855,  0.0020,  0.0252,  0.0146,  0.0125, -0.0114
1492035166.3495550156,1492035166.3519389629, -0.1855,  0.0020,  0.0252,  0.0156,  0.0124, -0.0100
1492035166.3523170948,1492035166.3547201157, -0.1855,  0.0020,  0.0252,  0.0156,  0.0124, -0.0100
1492035166.3551180363,1492035166.3575520515, -0.1855,  0.0020,  0.0252,  0.0156,  0.0124, -0.0100
1492035166.3579308987,1492035166.3603460789, -0.1855,  0.0020,  0.0252,  0.0156,  0.0124, -0.0100
1492035166.3607199192,1492035166.3630309105, -0.1855,  0.0018,  0.0337,  0.0159,  0.0121, -0.0089
1492035166.3634018898,1492035166.3657009602, -0.1823,  0.0018,  0.0337,  0.0159,  0.0121, -0.0089
1492035166.3660728931,1492035166.3683791161, -0.1823,  0.0018,  0.0337,  0.0159,  0.0121, -0.0089
1492035166.3687510490,1492035166.3712050915, -0.1823,  0.0018,  0.0337,  0.0159,  0.0121, -0.0089
1492035166.3715779781,1492035166.3738820553, -0.1823,  0.0018,  0.0337,  0.0158,  0.0122, -0.0089
1492035166.3742530346,1492035166.3765609264, -0.1823,  0.0018,  0.0337,  0.0158,  0.0122, -0.0089
1492035166.3769309521,1492035166.3792328835, -0.1823,  0.0018,  0.0337,  0.0158,  0.0122, -0.0089
1492035166.3796029091,1492035166.3820879459, -0.1823,  0.0018,  0.0337,  0.0158,  0.0122, -0.0082
1492035166.3824670315,1492035166.3848969936, -0.1845, -0.0002,  0.0270,  0.0142,  0.0118, -0.0082
1492035166.3852739334,1492035166.3877720833, -0.1845, -0.0002,  0.0270,  0.0142,  0.0118, -0.0082
1492035166.3881518841,1492035166.3906021118, -0.1845, -0.0002,  0.0270,  0.0142,  0.0118, -0.0082
1492035166.3909730911,1492035166.3932769299, -0.1845, -0.0002,  0.0270,  0.0146,  0.0115, -0.0070
1492035166.3936469555,1492035166.3959529400, -0.1845, -0.0002,  0.0270,  0.0146,  0.0115, -0.0070
1492035166.3963229656,1492035166.3986270428, -0.1845, -0.0002,  0.0270,  0.0146,  0.0115, -0.0070
1492035166.3989961147,1492035166.4013760090, -0.1845, -0.0002,  0.0270,  0.0146,  0.0115, -0.0070
1492035166.4017550945,1492035166.4041860104, -0.1844,  0.0023,  0.0268,  0.0151,  0.0120, -0.0071
1492035166.4045629501,1492035166.4069919586, -0.1844,  0.0023,  0.0268,  0.0151,  0.0120, -0.0071
1492035166.4073688984,1492035166.4097900391, -0.1844,  0.0023,  0.0268,  0.0151,  0.0120, -0.0071
1492035166.4101769924,1492035166.4126009941, -0.1844,  0.0023,  0.0268,  0.0151,  0.0120, -0.0071
1492035166.4129779339,1492035166.4154100418, -0.1844,  0.0023,  0.0268,  0.0133,  0.0120, -0.0063
1492035166.4157869816,1492035166.4182159901, -0.1844,  0.0023,  0.0268,  0.0133,  0.0120, -0.0063
1492035166.4185929298,1492035166.4209809303, -0.1844,  0.0023,  0.0268,  0.0133,  0.0120, -0.0063
1492035166.4213531017,1492035166.4236550331, -0.1836,  0.0063,  0.0266,  0.0133,  0.0113, -0.0065
1492035166.4241659641,1492035166.4264729023, -0.1836,  0.0063,  0.0266,  0.0151,  0.0113, -0.0065
1492035166.4268429279,1492035166.4291450977, -0.1836,  0.0063,  0.0266,  0.0151,  0.0113, -0.0065
1492035166.4295129776,1492035166.4319100380, -0.1836,  0.0063,  0.0266,  0.0151,  0.0113, -0.0065
1492035166.4322810173,1492035166.4345870018, -0.1836,  0.0063,  0.0266,  0.0162,  0.0113, -0.0079
1492035166.4349579811,1492035166.4372580051, -0.1836,  0.0063,  0.0266,  0.0162,  0.0113, -0.0079
1492035166.4376280308,1492035166.4399290085, -0.1836,  0.0063,  0.0266,  0.0162,  0.0113, -0.0079
1492035166.4404659271,1492035166.4427659512, -0.1837,  0.0070,  0.0255,  0.0162,  0.0113, -0.0079
1492035166.4431359768,1492035166.4454329014, -0.1837,  0.0070,  0.0255,  0.0163,  0.0112, -0.0096
1492035166.4458029270,1492035166.4482009411, -0.1837,  0.0070,  0.0255,  0.0163,  0.0112, -0.0096
1492035166.4485909939,1492035166.4509599209, -0.1837,  0.0070,  0.0255,  0.0163,  0.0112, -0.0096
1492035166.4513399601,1492035166.4537639618, -0.1837,  0.0070,  0.0255,  0.0163,  0.0112, -0.0096
1492035166.4541420937,1492035166.4565689564, -0.1837,  0.0070,  0.0255,  0.0165,  0.0115, -0.0101
1492035166.4569470882,1492035166.4593698978, -0.1837,  0.0070,  0.0255,  0.0165,  0.0115, -0.0101
1492035166.4597458839,1492035166.4621760845, -0.1837,  0.0057,  0.0214,  0.0165,  0.0115, -0.0101
1492035166.4625520706,1492035166.4649789333, -0.1841,  0.0057,  0.0214,  0.0165,  0.0104, -0.0119
1492035166.4653539658,1492035166.4677839279, -0.1841,  0.0057,  0.0214,  0.0157,  0.0104, -0.0119
1492035166.4681620598,1492035166.4706559181, -0.1841,  0.0057,  0.0214,  0.0157,  0.0104, -0.0119
1492035166.4710319042,1492035166.4734520912, -0.1841,  0.0057,  0.0214,  0.0157,  0.0104, -0.0119
1492035166.4738290310,1492035166.4762499332, -0.1841,  0.0057,  0.0214,  0.0125,  0.0102, -0.0121
1492035166.4766271114,1492035166.4790511131, -0.1841,  0.0057,  0.0214,  0.0125,  0.0102, -0.0121
1492035166.4794290066,1492035166.4818639755, -0.1841,  0.0057,  0.0289,  0.0125,  0.0102, -0.0121
1492035166.4822409153,1492035166.4847819805, -0.1825,  0.0004,  0.0289,  0.0125,  0.0102, -0.0107
1492035166.4851520061,1492035166.4874598980, -0.1825,  0.0004,  0.0289,  0.0087,  0.0099, -0.0107
1492035166.4878299236,1492035166.4904160500, -0.1825,  0.0004,  0.0289,  0.0087,  0.0099, -0.0107
1492035166.4907970428,1492035166.4931130409, -0.1825,  0.0004,  0.0289,  0.0087,  0.0099, -0.0107
1492035166.4934849739,1492035166.4958469868, -0.1825,  0.0004,  0.0289,  0.0087,  0.0082, -0.0110
1492035166.4962298870,1492035166.4985470772, -0.1825,  0.0004,  0.0289,  0.0087,  0.0082, -0.0110
1492035166.4996700287,1492035166.5020909309, -0.1825,  0.0062,  0.0245,  0.0087,  0.0082, -0.0110
1492035166.5024719238,1492035166.5048990250, -0.1856,  0.0062,  0.0245,  0.0087,  0.0082, -0.0110
1492035166.5052781105,1492035166.5077071190, -0.1856,  0.0062,  0.0245,  0.0082,  0.0079, -0.0109
1492035166.5080850124,1492035166.5105209351, -0.1856,  0.0062,  0.0245,  0.0082,  0.0079, -0.0109
1492035166.5109000206,1492035166.5133280754, -0.1856,  0.0062,  0.0245,  0.0082,  0.0079, -0.0109
1492035166.5137040615,1492035166.5161368847, -0.1856,  0.0062,  0.0245,  0.0082,  0.0084, -0.0126
1492035166.5165159702,1492035166.5189380646, -0.1856,  0.0062,  0.0245,  0.0089,  0.0084, -0.0126
1492035166.5193140507,1492035166.5217490196, -0.1856,  0.0070,  0.0277,  0.0089,  0.0084, -0.0126
1492035166.5221259594,1492035166.5245571136, -0.1851,  0.0070,  0.0277,  0.0089,  0.0084, -0.0126
1492035166.5249369144,1492035166.5273671150, -0.1851,  0.0070,  0.0277,  0.0109,  0.0087, -0.0130
1492035166.5277419090,1492035166.5302109718, -0.1851,  0.0070,  0.0277,  0.0109,  0.0087, -0.0130
1492035166.5305829048,1492035166.5328888893, -0.1851,  0.0070,  0.0277,  0.0109,  0.0087, -0.0130
1492035166.5332579613,1492035166.5355589390, -0.1851,  0.0070,  0.0277,  0.0109,  0.0087, -0.0130
1492035166.5359299183,1492035166.5382339954, -0.1851,  0.0070,  0.0277,  0.0087,  0.0077, -0.0124
1492035166.5387279987,1492035166.5411250591, -0.1851,  0.0070,  0.0229,  0.0087,  0.0077, -0.0124
1492035166.5414960384,1492035166.5438029766, -0.1860, -0.0008,  0.0229,  0.0087,  0.0077, -0.0124
1492035166.5441730022,1492035166.5464730263, -0.1860, -0.0008,  0.0229,  0.0087,  0.0077, -0.0114
1492035166.5468430519,1492035166.5491449833, -0.1860, -0.0008,  0.0229,  0.0067,  0.0070, -0.0114
1492035166.5495159626,1492035166.5520169735, -0.1860, -0.0008,  0.0229,  0.0067,  0.0070, -0.0114
1492035166.5523960590,1492035166.5548288822, -0.1860, -0.0008,  0.0229,  0.0067,  0.0070, -0.0114
1492035166.5552060604,1492035166.5576329231, -0.1860, -0.0008,  0.0229,  0.0081,  0.0063, -0.0101
1492035166.5580101013,1492035166.5604488850, -0.1860, -0.0008,  0.0229,  0.0081,  0.0063, -0.0101
1492035166.5608289242,1492035166.5632550716, -0.1863,  0.0048,  0.0252,  0.0081,  0.0063, -0.0101
1492035166.5636329651,1492035166.5660610199, -0.1863,  0.0048,  0.0252,  0.0081,  0.0063, -0.0101
1492035166.5664389133,1492035166.5688679218, -0.1863,  0.0048,  0.0252,  0.0086,  0.0052, -0.0092
1492035166.5692451000,1492035166.5716838837, -0.1863,  0.0048,  0.0252,  0.0086,  0.0052, -0.0092
1492035166.5720639229,1492035166.5744879246, -0.1863,  0.0048,  0.0252,  0.0086,  0.0052, -0.0092
1492035166.5748651028,1492035166.5772991180, -0.1863,  0.0048,  0.0252,  0.0086,  0.0052, -0.0092
1492035166.5776760578,1492035166.5801069736, -0.1863,  0.0048,  0.0252,  0.0071,  0.0052, -0.0092
1492035166.5804789066,1492035166.5827870369, -0.1857,  0.0051,  0.0286,  0.0071,  0.0052, -0.0092
1492035166.5831570625,1492035166.5854570866, -0.1857,  0.0051,  0.0286,  0.0071,  0.0052, -0.0092
1492035166.5858290195,1492035166.5881268978, -0.1857,  0.0051,  0.0286,  0.0071,  0.0064, -0.0088
1492035166.5884969234,1492035166.5909030437, -0.1857,  0.0051,  0.0286,  0.0049,  0.0064, -0.0088
1492035166.5912721157,1492035166.5935740471, -0.1857,  0.0051,  0.0286,  0.0049,  0.0064, -0.0088
1492035166.5939459801,1492035166.5962429047, -0.1857,  0.0051,  0.0286,  0.0049,  0.0064, -0.0088
1492035166.5966138840,1492035166.5989201069, -0.1857,  0.0051,  0.0286,  0.0075,  0.0072, -0.0097
1492035166.5992898941,1492035166.6017060280, -0.1842,  0.0083,  0.0309,  0.0075,  0.0072, -0.0097
1492035166.6020839214,1492035166.6045010090, -0.1842,  0.0083,  0.0309,  0.0075,  0.0072, -0.0097
1492035166.6048779488,1492035166.6073589325, -0.1842,  0.0083,  0.0309,  0.0075,  0.0072, -0.0097
1492035166.6077389717,1492035166.6101539135, -0.1842,  0.0083,  0.0309,  0.0115,  0.0080, -0.0111
1492035166.6105329990,1492035166.6129660606, -0.1842,  0.0083,  0.0309,  0.0115,  0.0080, -0.0111
1492035166.6133430004,1492035166.6157739162, -0.1842,  0.0083,  0.0309,  0.0115,  0.0080, -0.0111
1492035166.6161510944,1492035166.6185770035, -0.1842,  0.0083,  0.0309,  0.0115,  0.0080, -0.0122
1492035166.6189548969,1492035166.6214380264, -0.1826,  0.0092,  0.0280,  0.0137,  0.0089, -0.0122
1492035166.6218159199,1492035166.6242439747, -0.1826,  0.0092,  0.0280,  0.0137,  0.0089, -0.0122
1492035166.6246230602,1492035166.6270580292, -0.1826,  0.0092,  0.0280,  0.0137,  0.0089, -0.0122
1492035166.6274371147,1492035166.6298630238, -0.1826,  0.0092,  0.0280,  0.0150,  0.0093, -0.0141
1492035166.6302449703,1492035166.6326599121, -0.1826,  0.0092,  0.0280,  0.0150,  0.0093, -0.0141
1492035166.6330358982,1492035166.6354539394, -0.1826,  0.0092,  0.0280,  0.0150,  0.0093, -0.0141
1492035166.6358311176,1492035166.6382439137, -0.1826,  0.0092,  0.0280,  0.0150,  0.0093, -0.0141
1492035166.6386210918,1492035166.6409950256, -0.1848,  0.0070,  0.0264,  0.0157,  0.0089, -0.0147
1492035166.6413640976,1492035166.6436669827, -0.1848,  0.0070,  0.0264,  0.0157,  0.0089, -0.0147
1492035166.6440360546,1492035166.6463410854, -0.1848,  0.0070,  0.0264,  0.0157,  0.0089, -0.0147
1492035166.6467099190,1492035166.6490430832, -0.1848,  0.0070,  0.0264,  0.0157,  0.0089, -0.0147
1492035166.6494131088,1492035166.6518790722, -0.1848,  0.0070,  0.0264,  0.0151,  0.0097, -0.0149
1492035166.6522500515,1492035166.6545538902, -0.1848,  0.0070,  0.0264,  0.0151,  0.0097, -0.0149
1492035166.6550400257,1492035166.6573429108, -0.1848,  0.0070,  0.0264,  0.0151,  0.0097, -0.0149
1492035166.6577138901,1492035166.6601490974, -0.1848,  0.0070,  0.0228,  0.0151,  0.0097, -0.0156
1492035166.6605269909,1492035166.6629579067, -0.1845,  0.0075,  0.0228,  0.0169,  0.0092, -0.0156
1492035166.6633379459,1492035166.6657640934, -0.1845,  0.0075,  0.0228,  0.0169,  0.0092, -0.0156
1492035166.6661400795,1492035166.6685669422, -0.1845,  0.0075,  0.0228,  0.0169,  0.0092, -0.0156
1492035166.6689429283,1492035166.6713740826, -0.1845,  0.0075,  0.0228,  0.0185,  0.0091, -0.0162
1492035166.6717519760,1492035166.6741778851, -0.1845,  0.0075,  0.0228,  0.0185,  0.0091, -0.0162
1492035166.6745550632,1492035166.6769819260, -0.1845,  0.0075,  0.0228,  0.0185,  0.0091, -0.0162
1492035166.6773591042,1492035166.6797890663, -0.1845,  0.0075,  0.0216,  0.0185,  0.0091, -0.0162
1492035166.6801769733,1492035166.6826059818, -0.1820,  0.0073,  0.0216,  0.0174,  0.0094, -0.0160
1492035166.6829841137,1492035166.6854140759, -0.1820,  0.0073,  0.0216,  0.0174,  0.0094, -0.0160
1492035166.6857919693,1492035166.6882200241, -0.1820,  0.0073,  0.0216,  0.0174,  0.0094, -0.0160
1492035166.6885969639,1492035166.6909880638, -0.1820,  0.0073,  0.0216,  0.0174,  0.0094, -0.0164
1492035166.6913590431,1492035166.6936628819, -0.1820,  0.0073,  0.0216,  0.0173,  0.0080, -0.0164
1492035166.6940329075,1492035166.6963350773, -0.1820,  0.0073,  0.0216,  0.0173,  0.0080, -0.0164
1492035166.6967051029,1492035166.6990048885, -0.1820,  0.0073,  0.0216,  0.0173,  0.0080, -0.0164
1492035166.6993770599,1492035166.7017800808, -0.1833,  0.0068,  0.0251,  0.0172,  0.0078, -0.0166
1492035166.7021589279,1492035166.7045800686, -0.1833,  0.0068,  0.0251,  0.0172,  0.0078, -0.0166
1492035166.7049570084,1492035166.7073819637, -0.1833,  0.0068,  0.0251,  0.0172,  0.0078, -0.0166
1492035166.7077589035,1492035166.7102329731, -0.1833,  0.0068,  0.0251,  0.0172,  0.0078, -0.0166
1492035166.7106099129,1492035166.7130370140, -0.1833,  0.0068,  0.0251,  0.0160,  0.0080, -0.0165
1492035166.7134149075,1492035166.7158439159, -0.1833,  0.0068,  0.0251,  0.0160,  0.0080, -0.0165
1492035166.7162220478,1492035166.7186520100, -0.1833,  0.0068,  0.0251,  0.0160,  0.0080, -0.0165
1492035166.7190289497,1492035166.7214710712, -0.1832,  0.0053,  0.0252,  0.0160,  0.0080, -0.0160
1492035166.7218470573,1492035166.7242779732, -0.1832,  0.0053,  0.0252,  0.0154,  0.0083, -0.0160
1492035166.7246549129,1492035166.7270779610, -0.1832,  0.0053,  0.0252,  0.0154,  0.0083, -0.0160
1492035166.7274549007,1492035166.7298851013, -0.1832,  0.0053,  0.0252,  0.0154,  0.0083, -0.0160
1492035166.7302620411,1492035166.7326879501, -0.1832,  0.0053,  0.0252,  0.0155,  0.0073, -0.0164
1492035166.7330660820,1492035166.7354910374, -0.1832,  0.0053,  0.0252,  0.0155,  0.0073, -0.0164
1492035166.7358698845,1492035166.7382988930, -0.1832,  0.0053,  0.0252,  0.0155,  0.0073, -0.0164
1492035166.7386760712,1492035166.7410690784, -0.1815,  0.0086,  0.0269,  0.0155,  0.0073, -0.0164
1492035166.7414400578,1492035166.7437419891, -0.1815,  0.0086,  0.0269,  0.0145,  0.0079, -0.0173
1492035166.7441101074,1492035166.7464098930, -0.1815,  0.0086,  0.0269,  0.0145,  0.0079, -0.0173
1492035166.7467780113,1492035166.7490820885, -0.1815,  0.0086,  0.0269,  0.0145,  0.0079, -0.0173
1492035166.7494521141,1492035166.7517828941, -0.1815,  0.0086,  0.0269,  0.0145,  0.0079, -0.0173
1492035166.7521510124,1492035166.7544469833, -0.1815,  0.0086,  0.0269,  0.0142,  0.0071, -0.0176
1492035166.7548160553,1492035166.7571139336, -0.1815,  0.0086,  0.0269,  0.0142,  0.0071, -0.0176
1492035166.7574839592,1492035166.7597880363, -0.1807,  0.0074,  0.0247,  0.0142,  0.0071, -0.0176
1492035166.7601680756,1492035166.7625949383, -0.1807,  0.0074,  0.0247,  0.0142,  0.0071, -0.0180
1492035166.7629721165,1492035166.7654020786, -0.1807,  0.0074,  0.0247,  0.0128,  0.0061, -0.0180
1492035166.7657799721,1492035166.7682089806, -0.1807,  0.0074,  0.0247,  0.0128,  0.0061, -0.0180
1492035166.7685849667,1492035166.7710239887, -0.1807,  0.0074,  0.0247,  0.0128,  0.0061, -0.0180
1492035166.7715160847,1492035166.7739460468, -0.1807,  0.0074,  0.0247,  0.0127,  0.0059, -0.0186
1492035166.7743229866,1492035166.7767479420, -0.1807,  0.0074,  0.0247,  0.0127,  0.0059, -0.0186
1492035166.7771239281,1492035166.7795519829, -0.1807,  0.0078,  0.0259,  0.0127,  0.0059, -0.0186
1492035166.7799289227,1492035166.7823650837, -0.1818,  0.0078,  0.0259,  0.0127,  0.0059, -0.0186
1492035166.7827420235,1492035166.7851669788, -0.1818,  0.0078,  0.0259,  0.0124,  0.0052, -0.0197
1492035166.7855429649,1492035166.7879691124, -0.1818,  0.0078,  0.0259,  0.0124,  0.0052, -0.0197
1492035166.7883450985,1492035166.7907760143, -0.1818,  0.0078,  0.0259,  0.0124,  0.0052, -0.0197
1492035166.7911469936,1492035166.7934470177, -0.1818,  0.0078,  0.0259,  0.0124,  0.0052, -0.0203
1492035166.7938179970,1492035166.7961170673, -0.1818,  0.0078,  0.0259,  0.0126,  0.0050, -0.0203
1492035166.7964859009,1492035166.7987871170, -0.1818,  0.0078,  0.0219,  0.0126,  0.0050, -0.0203
1492035166.7991549969,1492035166.8015680313, -0.1841,  0.0082,  0.0219,  0.0126,  0.0050, -0.0203
1492035166.8019459248,1492035166.8043730259, -0.1841,  0.0082,  0.0219,  0.0126,  0.0047, -0.0211
1492035166.8047521114,1492035166.8071749210, -0.1841,  0.0082,  0.0219,  0.0130,  0.0047, -0.0211
1492035166.8075520992,1492035166.8100290298, -0.1841,  0.0082,  0.0219,  0.0130,  0.0047, -0.0211
1492035166.8104059696,1492035166.8128390312, -0.1841,  0.0082,  0.0219,  0.0130,  0.0047, -0.0211
1492035166.8132140636,1492035166.8156359196, -0.1841,  0.0082,  0.0219,  0.0136,  0.0045, -0.0220
1492035166.8160150051,1492035166.8184390068, -0.1841,  0.0082,  0.0275,  0.0136,  0.0045, -0.0220
1492035166.8188169003,1492035166.8212540150, -0.1838,  0.0074,  0.0275,  0.0136,  0.0045, -0.0220
1492035166.8216319084,1492035166.8240559101, -0.1838,  0.0074,  0.0275,  0.0136,  0.0045, -0.0220
1492035166.8244340420,1492035166.8268609047, -0.1838,  0.0074,  0.0275,  0.0136,  0.0044, -0.0230
1492035166.8272368908,1492035166.8296649456, -0.1838,  0.0074,  0.0275,  0.0136,  0.0044, -0.0230
1492035166.8300499916,1492035166.8324830532, -0.1838,  0.0074,  0.0275,  0.0136,  0.0044, -0.0230
1492035166.8328609467,1492035166.8352899551, -0.1838,  0.0074,  0.0275,  0.0136,  0.0035, -0.0233
1492035166.8356680870,1492035166.8381009102, -0.1838,  0.0074,  0.0275,  0.0120,  0.0035, -0.0233
1492035166.8384780884,1492035166.8408799171, -0.1839,  0.0064,  0.0259,  0.0120,  0.0035, -0.0233
1492035166.8412489891,1492035166.8435521126, -0.1839,  0.0064,  0.0259,  0.0120,  0.0035, -0.0233
1492035166.8439230919,1492035166.8462190628, -0.1839,  0.0064,  0.0259,  0.0112,  0.0028, -0.0232
1492035166.8465890884,1492035166.8488891125, -0.1839,  0.0064,  0.0259,  0.0112,  0.0028, -0.0232
1492035166.8492579460,1492035166.8516759872, -0.1839,  0.0064,  0.0259,  0.0112,  0.0028, -0.0232
1492035166.8520541191,1492035166.8544809818, -0.1839,  0.0064,  0.0259,  0.0112,  0.0028, -0.0232
1492035166.8548579216,1492035166.8572890759, -0.1839,  0.0064,  0.0259,  0.0098,  0.0030, -0.0230
1492035166.8576679230,1492035166.8601078987, -0.1830,  0.0043,  0.0221,  0.0098,  0.0030, -0.0230
1492035166.8604869843,1492035166.8629109859, -0.1830,  0.0043,  0.0221,  0.0098,  0.0030, -0.0230
1492035166.8632891178,1492035166.8657150269, -0.1830,  0.0043,  0.0221,  0.0098,  0.0030, -0.0234
1492035166.8660919666,1492035166.8685219288, -0.1830,  0.0043,  0.0221,  0.0078,  0.0021, -0.0234
1492035166.8689000607,1492035166.8713419437, -0.1830,  0.0043,  0.0221,  0.0078,  0.0021, -0.0234
1492035166.8717188835,1492035166.8741490841, -0.1830,  0.0043,  0.0221,  0.0078,  0.0021, -0.0234
1492035166.8745269775,1492035166.8769519329, -0.1830,  0.0043,  0.0221,  0.0068,  0.0014, -0.0237
1492035166.8773300648,1492035166.8797559738, -0.1829,  0.0062,  0.0242,  0.0068,  0.0014, -0.0237
1492035166.8801429272,1492035166.8825740814, -0.1829,  0.0062,  0.0242,  0.0068,  0.0014, -0.0237
1492035166.8829510212,1492035166.8853790760, -0.1829,  0.0062,  0.0242,  0.0068,  0.0014, -0.0237
1492035166.8857560158,1492035166.8881859779, -0.1829,  0.0062,  0.0242,  0.0057,  0.0008, -0.0236
1492035166.8886721134,1492035166.8910639286, -0.1829,  0.0062,  0.0242,  0.0057,  0.0008, -0.0236
1492035166.8914349079,1492035166.8937408924, -0.1829,  0.0062,  0.0242,  0.0057,  0.0008, -0.0236
1492035166.8941109180,1492035166.8964118958, -0.1829,  0.0062,  0.0242,  0.0057,  0.0008, -0.0238
1492035166.8967809677,1492035166.8990790844, -0.1836,  0.0064,  0.0224,  0.0052,  0.0007, -0.0238
1492035166.8994510174,1492035166.9017839432, -0.1836,  0.0064,  0.0224,  0.0052,  0.0007, -0.0238
1492035166.9021539688,1492035166.9044539928, -0.1836,  0.0064,  0.0224,  0.0052,  0.0007, -0.0238
1492035166.9048249722,1492035166.9071218967, -0.1836,  0.0064,  0.0224,  0.0052,  0.0003, -0.0241
1492035166.9074931145,1492035166.9097940922, -0.1836,  0.0064,  0.0224,  0.0041,  0.0003, -0.0241
1492035166.9101710320,1492035166.9126009941, -0.1836,  0.0064,  0.0224,  0.0041,  0.0003, -0.0241
1492035166.9129800797,1492035166.9154069424, -0.1836,  0.0064,  0.0224,  0.0041,  0.0003, -0.0241
1492035166.9157850742,1492035166.9182090759, -0.1836,  0.0045,  0.0291,  0.0039, -0.0005, -0.0234
1492035166.9185860157,1492035166.9210259914, -0.1837,  0.0045,  0.0291,  0.0039, -0.0005, -0.0234
1492035166.9214029312,1492035166.9238278866, -0.1837,  0.0045,  0.0291,  0.0039, -0.0005, -0.0234
1492035166.9242060184,1492035166.9266319275, -0.1837,  0.0045,  0.0291,  0.0039, -0.0005, -0.0234
1492035166.9270079136,1492035166.9294300079, -0.1837,  0.0045,  0.0291,  0.0029, -0.0009, -0.0219
1492035166.9298069477,1492035166.9322409630, -0.1837,  0.0045,  0.0291,  0.0029, -0.0009, -0.0219
1492035166.9326200485,1492035166.9350469112, -0.1837,  0.0045,  0.0291,  0.0029, -0.0009, -0.0219
1492035166.9354228973,1492035166.9378559589, -0.1837,  0.0008,  0.0247,  0.0029, -0.0009, -0.0210
1492035166.9382319450,1492035166.9406421185, -0.1879,  0.0008,  0.0247,  0.0005, -0.0009, -0.0210
1492035166.9410119057,1492035166.9433150291, -0.1879,  0.0008,  0.0247,  0.0005, -0.0009, -0.0210
1492035166.9436829090,1492035166.9459900856, -0.1879,  0.0008,  0.0247,  0.0005, -0.0009, -0.0210
1492035166.9463601112,1492035166.9486620426, -0.1879,  0.0008,  0.0247,  0.0002, -0.0008, -0.0199
1492035166.9490289688,1492035166.9514389038, -0.1879,  0.0008,  0.0247,  0.0002, -0.0008, -0.0199
1492035166.9518129826,1492035166.9542300701, -0.1879,  0.0008,  0.0247,  0.0002, -0.0008, -0.0199
1492035166.9546051025,1492035166.9570178986, -0.1879,  0.0008,  0.0247,  0.0002, -0.0008, -0.0199
1492035166.9573950768,1492035166.9598059654, -0.1862,  0.0052,  0.0287, -0.0003, -0.0015, -0.0183
1492035166.9601910114,1492035166.9626049995, -0.1862,  0.0052,  0.0287, -0.0003, -0.0015, -0.0183
1492035166.9629819393,1492035166.9653999805, -0.1862,  0.0052,  0.0287, -0.0003, -0.0015, -0.0183
1492035166.9657781124,1492035166.9681899548, -0.1862,  0.0052,  0.0287, -0.0003, -0.0015, -0.0183
1492035166.9685649872,1492035166.9710190296, -0.1862,  0.0052,  0.0287,  0.0014,  0.0000, -0.0184
1492035166.9713969231,1492035166.9738140106, -0.1862,  0.0052,  0.0287,  0.0014,  0.0000, -0.0184
1492035166.9741899967,1492035166.9766049385, -0.1862,  0.0052,  0.0287,  0.0014,  0.0000, -0.0184
1492035166.9769840240,1492035166.9793999195, -0.1845,  0.0049,  0.0308,  0.0014,  0.0013, -0.0194
1492035166.9797759056,1492035166.9822669029, -0.1845,  0.0049,  0.0308,  0.0022,  0.0013, -0.0194
1492035166.9826409817,1492035166.9850280285, -0.1845,  0.0049,  0.0308,  0.0022,  0.0013, -0.0194
1492035166.9854030609,1492035166.9877939224, -0.1845,  0.0049,  0.0308,  0.0022,  0.0013, -0.0194
1492035166.9881689548,1492035166.9906148911, -0.1845,  0.0049,  0.0308,  0.0031,  0.0023, -0.0193
1492035166.9909849167,1492035166.9932880402, -0.1845,  0.0049,  0.0308,  0.0031,  0.0023, -0.0193
1492035166.9936571121,1492035166.9959590435, -0.1845,  0.0049,  0.0308,  0.0031,  0.0023, -0.0193
1492035166.9963259697,1492035166.9986310005, -0.1874,  0.0034,  0.0216,  0.0031,  0.0023, -0.0193
1492035166.9990010262,1492035167.0014469624, -0.1874,  0.0034,  0.0216,  0.0032,  0.0033, -0.0193
1492035167.0019240379,1492035167.0043590069, -0.1874,  0.0034,  0.0216,  0.0032,  0.0033, -0.0193
1492035167.0047359467,1492035167.0071671009, -0.1874,  0.0034,  0.0216,  0.0032,  0.0033, -0.0193
1492035167.0075440407,1492035167.0099709034, -0.1874,  0.0034,  0.0216,  0.0032,  0.0033, -0.0193
1492035167.0103909969,1492035167.0128240585, -0.1874,  0.0034,  0.0216,  0.0037,  0.0029, -0.0193
1492035167.0132000446,1492035167.0156269073, -0.1874,  0.0034,  0.0216,  0.0037,  0.0029, -0.0193
1492035167.0160040855,1492035167.0184340477, -0.1852,  0.0038,  0.0269,  0.0037,  0.0029, -0.0193
1492035167.0188090801,1492035167.0212481022, -0.1852,  0.0038,  0.0269,  0.0047,  0.0026, -0.0187
1492035167.0216250420,1492035167.0240559578, -0.1852,  0.0038,  0.0269,  0.0047,  0.0026, -0.0187
1492035167.0244328976,1492035167.0268609524, -0.1852,  0.0038,  0.0269,  0.0047,  0.0026, -0.0187
1492035167.0272378922,1492035167.0296659470, -0.1852,  0.0038,  0.0269,  0.0047,  0.0026, -0.0187
1492035167.0300540924,1492035167.0324859619, -0.1852,  0.0038,  0.0269,  0.0038,  0.0020, -0.0175
1492035167.0328629017,1492035167.0352909565, -0.1852,  0.0038,  0.0269,  0.0038,  0.0020, -0.0175
1492035167.0356678963,1492035167.0380918980, -0.1856,  0.0033,  0.0239,  0.0038,  0.0020, -0.0175
1492035167.0384678841,1492035167.0408649445, -0.1856,  0.0033,  0.0239,  0.0038,  0.0001, -0.0176
1492035167.0412371159,1492035167.0435390472, -0.1856,  0.0033,  0.0239, -0.0005,  0.0001, -0.0176
1492035167.0439100266,1492035167.0462110043, -0.1856,  0.0033,  0.0239, -0.0005,  0.0001, -0.0176
1492035167.0465800762,1492035167.0488839149, -0.1856,  0.0033,  0.0239, -0.0005,  0.0001, -0.0176
1492035167.0492510796,1492035167.0516750813, -0.1856,  0.0033,  0.0239, -0.0023, -0.0019, -0.0168
1492035167.0520548820,1492035167.0544650555, -0.1856,  0.0033,  0.0239, -0.0023, -0.0019, -0.0168
1492035167.0548419952,1492035167.0572600365, -0.1828,  0.0023,  0.0248, -0.0023, -0.0019, -0.0168
1492035167.0576369762,1492035167.0600640774, -0.1828,  0.0023,  0.0248, -0.0023, -0.0019, -0.0168
1492035167.0604400635,1492035167.0628519058, -0.1828,  0.0023,  0.0248, -0.0013, -0.0021, -0.0144
1492035167.0632300377,1492035167.0656409264, -0.1828,  0.0023,  0.0248, -0.0013, -0.0021, -0.0144
1492035167.0660181046,1492035167.0684289932, -0.1828,  0.0023,  0.0248, -0.0013, -0.0021, -0.0144
1492035167.0688049793,1492035167.0712299347, -0.1828,  0.0023,  0.0248, -0.0013, -0.0021, -0.0129
1492035167.0716071129,1492035167.0740211010, -0.1828,  0.0023,  0.0248, -0.0020, -0.0032, -0.0129
1492035167.0743970871,1492035167.0768079758, -0.1828,  0.0036,  0.0244, -0.0020, -0.0032, -0.0129
1492035167.0771839619,1492035167.0795969963, -0.1847,  0.0036,  0.0244, -0.0020, -0.0032, -0.0129
1492035167.0799720287,1492035167.0824050903, -0.1847,  0.0036,  0.0244, -0.0034, -0.0034, -0.0119
1492035167.0827820301,1492035167.0851719379, -0.1847,  0.0036,  0.0244, -0.0034, -0.0034, -0.0119
1492035167.0855460167,1492035167.0879459381, -0.1847,  0.0036,  0.0244, -0.0034, -0.0034, -0.0119
1492035167.0883209705,1492035167.0906980038, -0.1847,  0.0036,  0.0244, -0.0034, -0.0034, -0.0119
1492035167.0910680294,1492035167.0933730602, -0.1847,  0.0036,  0.0244, -0.0063, -0.0030, -0.0124
1492035167.0937418938,1492035167.0960440636, -0.1847,  0.0036,  0.0287, -0.0063, -0.0030, -0.0124
1492035167.0964150429,1492035167.0987129211, -0.1862,  0.0052,  0.0287, -0.0063, -0.0030, -0.0124
1492035167.0990839005,1492035167.1014831066, -0.1862,  0.0052,  0.0287, -0.0063, -0.0030, -0.0124
1492035167.1018600464,1492035167.1042881012, -0.1862,  0.0052,  0.0287, -0.0121, -0.0025, -0.0142
1492035167.1046650410,1492035167.1070930958, -0.1862,  0.0052,  0.0287, -0.0121, -0.0025, -0.0142
1492035167.1074709892,1492035167.1098949909, -0.1862,  0.0052,  0.0287, -0.0121, -0.0025, -0.0142
1492035167.1102700233,1492035167.1127018929, -0.1862,  0.0052,  0.0287, -0.0121, -0.0025, -0.0147
1492035167.1130790710,1492035167.1155059338, -0.1862,  0.0052,  0.0287, -0.0137, -0.0019, -0.0147
1492035167.1158850193,1492035167.1183149815, -0.1827,  0.0055,  0.0254, -0.0137, -0.0019, -0.0147
1492035167.1188011169,1492035167.1212420464, -0.1827,  0.0055,  0.0254, -0.0137, -0.0019, -0.0147
1492035167.1216199398,1492035167.1240530014, -0.1827,  0.0055,  0.0254, -0.0109, -0.0001, -0.0146
1492035167.1244299412,1492035167.1268529892, -0.1827,  0.0055,  0.0254, -0.0109, -0.0001, -0.0146
1492035167.1272320747,1492035167.1296620369, -0.1827,  0.0055,  0.0254, -0.0109, -0.0001, -0.0146
1492035167.1300480366,1492035167.1323499680, -0.1827,  0.0055,  0.0254, -0.0109, -0.0001, -0.0146
1492035167.1327199936,1492035167.1350181103, -0.1827,  0.0055,  0.0254, -0.0143,  0.0018, -0.0142
1492035167.1353878975,1492035167.1376910210, -0.1873,  0.0042,  0.0169, -0.0143,  0.0018, -0.0142
1492035167.1380620003,1492035167.1404249668, -0.1873,  0.0042,  0.0169, -0.0143,  0.0018, -0.0142
1492035167.1407968998,1492035167.1430981159, -0.1873,  0.0042,  0.0169, -0.0143,  0.0018, -0.0142
1492035167.1434679031,1492035167.1457719803, -0.1873,  0.0042,  0.0169, -0.0261,  0.0034, -0.0151
1492035167.1461420059,1492035167.1484420300, -0.1873,  0.0042,  0.0169, -0.0261,  0.0034, -0.0151
1492035167.1488111019,1492035167.1511590481, -0.1873,  0.0042,  0.0169, -0.0261,  0.0034, -0.0151
1492035167.1515300274,1492035167.1538259983, -0.1873,  0.0042,  0.0169, -0.0261,  0.0034, -0.0145
1492035167.1541960239,1492035167.1564929485, -0.1903,  0.0179,  0.0114, -0.0176,  0.0074, -0.0145
1492035167.1568629742,1492035167.1591649055, -0.1903,  0.0179,  0.0114, -0.0176,  0.0074, -0.0145
1492035167.1595330238,1492035167.1619861126, -0.1903,  0.0179,  0.0114, -0.0176,  0.0074, -0.0145
1492035167.1623630524,1492035167.1647889614, -0.1903,  0.0179,  0.0114, -0.0122,  0.0067, -0.0108
1492035167.1651670933,1492035167.1675980091, -0.1903,  0.0179,  0.0114, -0.0122,  0.0067, -0.0108
1492035167.1679759026,1492035167.1704330444, -0.1903,  0.0179,  0.0114, -0.0122,  0.0067, -0.0108
1492035167.1708090305,1492035167.1732339859, -0.1903,  0.0179,  0.0114, -0.0122,  0.0067, -0.0108
1492035167.1736109257,1492035167.1760380268, -0.1893, -0.0055,  0.0309, -0.0095,  0.0038, -0.0092
1492035167.1764171124,1492035167.1788370609, -0.1893, -0.0055,  0.0309, -0.0095,  0.0038, -0.0092
1492035167.1792171001,1492035167.1816599369, -0.1893, -0.0055,  0.0309, -0.0095,  0.0038, -0.0092
1492035167.1820371151,1492035167.1844649315, -0.1893, -0.0055,  0.0309, -0.0095,  0.0038, -0.0099
1492035167.1848430634,1492035167.1872730255, -0.1893, -0.0055,  0.0309, -0.0008,  0.0035, -0.0099
1492035167.1876509190,1492035167.1900899410, -0.1893, -0.0055,  0.0309, -0.0008,  0.0035, -0.0099
1492035167.1904668808,1492035167.1928970814, -0.1893, -0.0055,  0.0309, -0.0008,  0.0035, -0.0099
1492035167.1932749748,1492035167.1957039833, -0.1815,  0.0138,  0.0304,  0.0072,  0.0068, -0.0105
1492035167.1960821152,1492035167.1985061169, -0.1837,  0.0138,  0.0304,  0.0072,  0.0068, -0.0105
1492035167.1988849640,1492035167.2012650967, -0.1837,  0.0138,  0.0304,  0.0072,  0.0068, -0.0105
1492035167.2016348839,1492035167.2039349079, -0.1837,  0.0138,  0.0304,  0.0072,  0.0068, -0.0105
1492035167.2043030262,1492035167.2066059113, -0.1837,  0.0138,  0.0304,  0.0111,  0.0096, -0.0143
1492035167.2069759369,1492035167.2092750072, -0.1837,  0.0138,  0.0304,  0.0111,  0.0096, -0.0143
1492035167.2096459866,1492035167.2120969296, -0.1837,  0.0138,  0.0304,  0.0111,  0.0096, -0.0143
1492035167.2124741077,1492035167.2148981094, -0.1837,  0.0138,  0.0257,  0.0111,  0.0096, -0.0143
1492035167.2152729034,1492035167.2177040577, -0.1831,  0.0121,  0.0257,  0.0122,  0.0109, -0.0186
1492035167.2180790901,1492035167.2205169201, -0.1831,  0.0121,  0.0257,  0.0122,  0.0109, -0.0186
1492035167.2208940983,1492035167.2233200073, -0.1831,  0.0121,  0.0257,  0.0122,  0.0109, -0.0186
1492035167.2236959934,1492035167.2261240482, -0.1831,  0.0121,  0.0257,  0.0122,  0.0086, -0.0213
1492035167.2265000343,1492035167.2289268970, -0.1831,  0.0121,  0.0257,  0.0075,  0.0086, -0.0213
1492035167.2293059826,1492035167.2317430973, -0.1831,  0.0121,  0.0257,  0.0075,  0.0086, -0.0213
1492035167.2321200371,1492035167.2345509529, -0.1831,  0.0121,  0.0266,  0.0075,  0.0086, -0.0213
1492035167.2350370884,1492035167.2374620438, -0.1831,  0.0032,  0.0266,  0.0024,  0.0069, -0.0233
1492035167.2378399372,1492035167.2402811050, -0.1831,  0.0032,  0.0266,  0.0024,  0.0069, -0.0233
1492035167.2406599522,1492035167.2430911064, -0.1831,  0.0032,  0.0266,  0.0024,  0.0069, -0.0233
1492035167.2434659004,1492035167.2458899021, -0.1831,  0.0032,  0.0266,  0.0024,  0.0069, -0.0233
1492035167.2462670803,1492035167.2486960888, -0.1831,  0.0032,  0.0266, -0.0024,  0.0052, -0.0233
1492035167.2490770817,1492035167.2514429092, -0.1831,  0.0032,  0.0266, -0.0024,  0.0052, -0.0233
1492035167.2518129349,1492035167.2541189194, -0.1831,  0.0032,  0.0266, -0.0024,  0.0052, -0.0233
1492035167.2544879913,1492035167.2567939758, -0.1834, -0.0002,  0.0272, -0.0024,  0.0052, -0.0229
1492035167.2571630478,1492035167.2594609261, -0.1834, -0.0002,  0.0272, -0.0045,  0.0026, -0.0229
1492035167.2598299980,1492035167.2621819973, -0.1834, -0.0002,  0.0272, -0.0045,  0.0026, -0.0229
1492035167.2625520229,1492035167.2648520470, -0.1834, -0.0002,  0.0272, -0.0045,  0.0026, -0.0229
1492035167.2652199268,1492035167.2675189972, -0.1834, -0.0002,  0.0272, -0.0075,  0.0014, -0.0204
1492035167.2678880692,1492035167.2702510357, -0.1834, -0.0002,  0.0272, -0.0075,  0.0014, -0.0204
1492035167.2706289291,1492035167.2730569839, -0.1834, -0.0002,  0.0272, -0.0075,  0.0014, -0.0204
1492035167.2734339237,1492035167.2758638859, -0.1795, -0.0009,  0.0287, -0.0075,  0.0014, -0.0204
1492035167.2762420177,1492035167.2786669731, -0.1795, -0.0009,  0.0287, -0.0103,  0.0012, -0.0190
1492035167.2790439129,1492035167.2814860344, -0.1795, -0.0009,  0.0287, -0.0103,  0.0012, -0.0190
1492035167.2818639278,1492035167.2842938900, -0.1795, -0.0009,  0.0287, -0.0103,  0.0012, -0.0190
1492035167.2846720219,1492035167.2871019840, -0.1795, -0.0009,  0.0287, -0.0103,  0.0012, -0.0190
1492035167.2874801159,1492035167.2899060249, -0.1795, -0.0009,  0.0287, -0.0104,  0.0005, -0.0201
1492035167.2903320789,1492035167.2927589417, -0.1795, -0.0009,  0.0287, -0.0104,  0.0005, -0.0201
1492035167.2931358814,1492035167.2955639362, -0.1866,  0.0126,  0.0203, -0.0104,  0.0005, -0.0201
1492035167.2959411144,1492035167.2983660698, -0.1866,  0.0126,  0.0203, -0.0104,  0.0009, -0.0212
1492035167.2987420559,1492035167.3011660576, -0.1866,  0.0126,  0.0203, -0.0090,  0.0009, -0.0212
1492035167.3015429974,1492035167.3039710522, -0.1866,  0.0126,  0.0203, -0.0090,  0.0009, -0.0212
1492035167.3043479919,1492035167.3067729473, -0.1866,  0.0126,  0.0203, -0.0090,  0.0009, -0.0212
1492035167.3071479797,1492035167.3095710278, -0.1866,  0.0126,  0.0203, -0.0086,  0.0023, -0.0233
1492035167.3099489212,1492035167.3122570515, -0.1866,  0.0126,  0.0203, -0.0086,  0.0023, -0.0233
1492035167.3126280308,1492035167.3149280548, -0.1852,  0.0053,  0.0263, -0.0086,  0.0023, -0.0233
1492035167.3152980804,1492035167.3176000118, -0.1852,  0.0053,  0.0263, -0.0086,  0.0023, -0.0233
1492035167.3179700375,1492035167.3202970028, -0.1852,  0.0053,  0.0263, -0.0091,  0.0038, -0.0263
1492035167.3206748962,1492035167.3231000900, -0.1852,  0.0053,  0.0263, -0.0091,  0.0038, -0.0263
1492035167.3234779835,1492035167.3259038925, -0.1852,  0.0053,  0.0263, -0.0091,  0.0038, -0.0263
1492035167.3262820244,1492035167.3287069798, -0.1852,  0.0053,  0.0263, -0.0091,  0.0038, -0.0267
1492035167.3290860653,1492035167.3315260410, -0.1852,  0.0053,  0.0263, -0.0080,  0.0054, -0.0267
1492035167.3319048882,1492035167.3343288898, -0.1852, -0.0045,  0.0329, -0.0080,  0.0054, -0.0267
1492035167.3347070217,1492035167.3371350765, -0.1820, -0.0045,  0.0329, -0.0080,  0.0054, -0.0267
1492035167.3375120163,1492035167.3399419785, -0.1820, -0.0045,  0.0329, -0.0063,  0.0053, -0.0249
1492035167.3403720856,1492035167.3428020477, -0.1820, -0.0045,  0.0329, -0.0063,  0.0053, -0.0249
1492035167.3431799412,1492035167.3456089497, -0.1820, -0.0045,  0.0329, -0.0063,  0.0053, -0.0249
1492035167.3459870815,1492035167.3484098911, -0.1820, -0.0045,  0.0329, -0.0063,  0.0053, -0.0249
1492035167.3487889767,1492035167.3512589931, -0.1820, -0.0045,  0.0329, -0.0063,  0.0046, -0.0229
1492035167.3517439365,1492035167.3541719913, -0.1820,  0.0005,  0.0327, -0.0063,  0.0046, -0.0229
1492035167.3545489311,1492035167.3569788933, -0.1838,  0.0005,  0.0327, -0.0063,  0.0046, -0.0229
1492035167.3573570251,1492035167.3597860336, -0.1838,  0.0005,  0.0327, -0.0063,  0.0046, -0.0224
1492035167.3601729870,1492035167.3624730110, -0.1838,  0.0005,  0.0327, -0.0056,  0.0052, -0.0224
1492035167.3628439903,1492035167.3651409149, -0.1838,  0.0005,  0.0327, -0.0056,  0.0052, -0.0224
1492035167.3655099869,1492035167.3678100109, -0.1838,  0.0005,  0.0327, -0.0056,  0.0052, -0.0224
1492035167.3681800365,1492035167.3705320358, -0.1838,  0.0005,  0.0327, -0.0052,  0.0071, -0.0223
1492035167.3709108829,1492035167.3733439445, -0.1838,  0.0005,  0.0341, -0.0052,  0.0071, -0.0223
1492035167.3737220764,1492035167.3761460781, -0.1844, -0.0010,  0.0341, -0.0052,  0.0071, -0.0223
1492035167.3765239716,1492035167.3789520264, -0.1844, -0.0010,  0.0341, -0.0052,  0.0071, -0.0223
1492035167.3793311119,1492035167.3817749023, -0.1844, -0.0010,  0.0341, -0.0032,  0.0078, -0.0222
1492035167.3821530342,1492035167.3845760822, -0.1844, -0.0010,  0.0341, -0.0032,  0.0078, -0.0222
1492035167.3849530220,1492035167.3873820305, -0.1844, -0.0010,  0.0341, -0.0032,  0.0078, -0.0222
1492035167.3877589703,1492035167.3902499676, -0.1844, -0.0010,  0.0341, -0.0032,  0.0078, -0.0209
1492035167.3906290531,1492035167.3930590153, -0.1844, -0.0010,  0.0341, -0.0022,  0.0099, -0.0209
1492035167.3934381008,1492035167.3958680630, -0.1856, -0.0034,  0.0333, -0.0022,  0.0099, -0.0209
1492035167.3962459564,1492035167.3986699581, -0.1856, -0.0034,  0.0333, -0.0022,  0.0099, -0.0209
1492035167.3990468979,1492035167.4014809132, -0.1856, -0.0034,  0.0333, -0.0013,  0.0125, -0.0197
1492035167.4018590450,1492035167.4042870998, -0.1856, -0.0034,  0.0333, -0.0013,  0.0125, -0.0197
1492035167.4046630859,1492035167.4070920944, -0.1856, -0.0034,  0.0333, -0.0013,  0.0125, -0.0197
1492035167.4074680805,1492035167.4098939896, -0.1856, -0.0034,  0.0333, -0.0013,  0.0125, -0.0197
1492035167.4102649689,1492035167.4125649929, -0.1856, -0.0034,  0.0333,  0.0009,  0.0157, -0.0177
1492035167.4129350185,1492035167.4152369499, -0.1880, -0.0023,  0.0338,  0.0009,  0.0157, -0.0177
1492035167.4156050682,1492035167.4179089069, -0.1880, -0.0023,  0.0338,  0.0009,  0.0157, -0.0177
1492035167.4182779789,1492035167.4206531048, -0.1880, -0.0023,  0.0338,  0.0009,  0.0157, -0.0177
1492035167.4210309982,1492035167.4234549999, -0.1880, -0.0023,  0.0338,  0.0004,  0.0188, -0.0142
1492035167.4238340855,1492035167.4262609482, -0.1880, -0.0023,  0.0338,  0.0004,  0.0188, -0.0142
1492035167.4266369343,1492035167.4290659428, -0.1880, -0.0023,  0.0338,  0.0004,  0.0188, -0.0142
1492035167.4294409752,1492035167.4318809509, -0.1880, -0.0023,  0.0338,  0.0004,  0.0211, -0.0110
1492035167.4322578907,1492035167.4346880913, -0.1857, -0.0069,  0.0373,  0.0017,  0.0211, -0.0110
1492035167.4350650311,1492035167.4374899864, -0.1857, -0.0069,  0.0373,  0.0017,  0.0211, -0.0110
1492035167.4378659725,1492035167.4402959347, -0.1857, -0.0069,  0.0373,  0.0017,  0.0211, -0.0110
1492035167.4406731129,1492035167.4430971146, -0.1857, -0.0069,  0.0373,  0.0011,  0.0237, -0.0061
1492035167.4434759617,1492035167.4459021091, -0.1857, -0.0069,  0.0373,  0.0011,  0.0237, -0.0061
1492035167.4462800026,1492035167.4487090111, -0.1857, -0.0069,  0.0373,  0.0011,  0.0237, -0.0061
1492035167.4490869045,1492035167.4515259266, -0.1857, -0.0069,  0.0373,  0.0011,  0.0237, -0.0061
1492035167.4519040585,1492035167.4543280602, -0.1867, -0.0064,  0.0334,  0.0025,  0.0274, -0.0014
1492035167.4547049999,1492035167.4571359158, -0.1867, -0.0064,  0.0334,  0.0025,  0.0274, -0.0014
1492035167.4575130939,1492035167.4599409103, -0.1867, -0.0064,  0.0334,  0.0025,  0.0274, -0.0014
1492035167.4603769779,1492035167.4626729488, -0.1867, -0.0064,  0.0334,  0.0025,  0.0319,  0.0035
1492035167.4630429745,1492035167.4653420448, -0.1867, -0.0064,  0.0334,  0.0048,  0.0319,  0.0035
1492035167.4657120705,1492035167.4680089951, -0.1867, -0.0064,  0.0334,  0.0048,  0.0319,  0.0035
1492035167.4684860706,1492035167.4708719254, -0.1867, -0.0064,  0.0334,  0.0048,  0.0319,  0.0035
1492035167.4712491035,1492035167.4736750126, -0.1872, -0.0067,  0.0388,  0.0058,  0.0367,  0.0102
1492035167.4740529060,1492035167.4764819145, -0.1872, -0.0067,  0.0388,  0.0058,  0.0367,  0.0102
1492035167.4768600464,1492035167.4792881012, -0.1872, -0.0067,  0.0388,  0.0058,  0.0367,  0.0102
1492035167.4796659946,1492035167.4821031094, -0.1872, -0.0067,  0.0388,  0.0058,  0.0367,  0.0102
1492035167.4824819565,1492035167.4849090576, -0.1872, -0.0067,  0.0388,  0.0078,  0.0428,  0.0165
1492035167.4852879047,1492035167.4877159595, -0.1872, -0.0067,  0.0388,  0.0078,  0.0428,  0.0165
1492035167.4880928993,1492035167.4905331135, -0.1872, -0.0067,  0.0388,  0.0078,  0.0428,  0.0165
1492035167.4909110069,1492035167.4933409691, -0.1913, -0.0031,  0.0376,  0.0078,  0.0428,  0.0265
1492035167.4937169552,1492035167.4961450100, -0.1913, -0.0031,  0.0376,  0.0102,  0.0480,  0.0265
1492035167.4965209961,1492035167.4989519119, -0.1913, -0.0031,  0.0376,  0.0102,  0.0480,  0.0265
1492035167.4993278980,1492035167.5017709732, -0.1913, -0.0031,  0.0376,  0.0102,  0.0480,  0.0265
1492035167.5021469593,1492035167.5045740604, -0.1913, -0.0031,  0.0376,  0.0120,  0.0562,  0.0377
1492035167.5049500465,1492035167.5073781013, -0.1913, -0.0031,  0.0376,  0.0120,  0.0562,  0.0377
1492035167.5077550411,1492035167.5102410316, -0.1913, -0.0031,  0.0376,  0.0120,  0.0562,  0.0377
1492035167.5106110573,1492035167.5129120350, -0.1930, -0.0115,  0.0375,  0.0120,  0.0562,  0.0377
1492035167.5132820606,1492035167.5155849457, -0.1930, -0.0115,  0.0375,  0.0158,  0.0647,  0.0484
1492035167.5159540176,1492035167.5182559490, -0.1930, -0.0115,  0.0375,  0.0158,  0.0647,  0.0484
1492035167.5186250210,1492035167.5209751129, -0.1930, -0.0115,  0.0375,  0.0158,  0.0647,  0.0484
1492035167.5213429928,1492035167.5236449242, -0.1930, -0.0115,  0.0375,  0.0158,  0.0647,  0.0484
1492035167.5240130424,1492035167.5263149738, -0.1930, -0.0115,  0.0375,  0.0204,  0.0721,  0.0636
1492035167.5266819000,1492035167.5289790630, -0.1930, -0.0115,  0.0375,  0.0204,  0.0721,  0.0636
1492035167.5293450356,1492035167.5317850113, -0.1930, -0.0115,  0.0375,  0.0204,  0.0721,  0.0636
1492035167.5321629047,1492035167.5345859528, -0.2067, -0.0138,  0.0350,  0.0204,  0.0799,  0.0838
1492035167.5349619389,1492035167.5373909473, -0.2067, -0.0138,  0.0350,  0.0244,  0.0808,  0.0838
1492035167.5377659798,1492035167.5402340889, -0.2067, -0.0138,  0.0350,  0.0244,  0.0808,  0.0838
1492035167.5406129360,1492035167.5430378914, -0.2067, -0.0138,  0.0350,  0.0244,  0.0808,  0.0838
1492035167.5434141159,1492035167.5458419323, -0.2067, -0.0138,  0.0350,  0.0297,  0.0887,  0.1168
1492035167.5462191105,1492035167.5486440659, -0.2067, -0.0138,  0.0350,  0.0297,  0.0887,  0.1168
1492035167.5490229130,1492035167.5514628887, -0.2067, -0.0138,  0.0428,  0.0297,  0.0887,  0.1168
1492035167.5518400669,1492035167.5542640686, -0.2055, -0.0194,  0.0431,  0.0297,  0.0887,  0.1168
1492035167.5546400547,1492035167.5570690632, -0.2055, -0.0194,  0.0431,  0.0454,  0.0959,  0.1444
1492035167.5574450493,1492035167.5598740578, -0.2055, -0.0194,  0.0431,  0.0454,  0.0959,  0.1444
1492035167.5602529049,1492035167.5626819134, -0.2055, -0.0194,  0.0431,  0.0454,  0.0959,  0.1444
1492035167.5630590916,1492035167.5654819012, -0.2055, -0.0194,  0.0431,  0.0454,  0.1037,  0.1637
1492035167.5658578873,1492035167.5682899952, -0.2055, -0.0194,  0.0431,  0.0613,  0.1046,  0.1637
1492035167.5686669350,1492035167.5710558891, -0.2055, -0.0194,  0.0431,  0.0613,  0.1046,  0.1637
1492035167.5714280605,1492035167.5737290382, -0.2127, -0.0302,  0.0263,  0.0613,  0.1046,  0.1637
1492035167.5740981102,1492035167.5764040947, -0.2127, -0.0302,  0.0263,  0.0711,  0.1129,  0.1790
1492035167.5767729282,1492035167.5790750980, -0.2127, -0.0302,  0.0263,  0.0711,  0.1129,  0.1790
1492035167.5794439316,1492035167.5818820000, -0.2127, -0.0302,  0.0263,  0.0711,  0.1129,  0.1790
1492035167.5823678970,1492035167.5847918987, -0.2127, -0.0302,  0.0263,  0.0711,  0.1129,  0.1790
1492035167.5851678848,1492035167.5875940323, -0.2127, -0.0302,  0.0263,  0.0811,  0.1200,  0.1892
1492035167.5879709721,1492035167.5904359818, -0.2127, -0.0302,  0.0263,  0.0811,  0.1200,  0.1892
1492035167.5908129215,1492035167.5932350159, -0.2418, -0.0086,  0.0339,  0.0811,  0.1200,  0.1892
1492035167.5936160088,1492035167.5960450172, -0.2418, -0.0086,  0.0339,  0.0811,  0.1200,  0.2018
1492035167.5964241028,1492035167.5988481045, -0.2418, -0.0086,  0.0339,  0.0877,  0.1266,  0.2018
1492035167.5992250443,1492035167.6016590595, -0.2418, -0.0086,  0.0339,  0.0877,  0.1266,  0.2018
1492035167.6020369530,1492035167.6044609547, -0.2418, -0.0086,  0.0339,  0.0877,  0.1266,  0.2018
1492035167.6048378944,1492035167.6072649956, -0.2418, -0.0086,  0.0339,  0.0865,  0.1364,  0.2161
1492035167.6076419353,1492035167.6100780964, -0.2418, -0.0086,  0.0339,  0.0865,  0.1364,  0.2161
1492035167.6104559898,1492035167.6128869057, -0.2690, -0.0258,  0.0285,  0.0865,  0.1364,  0.2161
1492035167.6132619381,1492035167.6156880856, -0.2690, -0.0258,  0.0285,  0.0865,  0.1364,  0.2161
1492035167.6160631180,1492035167.6184868813, -0.2690, -0.0258,  0.0285,  0.0749,  0.1512,  0.2305
1492035167.6188631058,1492035167.6212379932, -0.2690, -0.0258,  0.0285,  0.0749,  0.1512,  0.2305
1492035167.6216080189,1492035167.6239080429, -0.2690, -0.0258,  0.0285,  0.0749,  0.1512,  0.2305
1492035167.6242771149,1492035167.6265759468, -0.2690, -0.0258,  0.0285,  0.0749,  0.1512,  0.2305
1492035167.6269440651,1492035167.6292450428, -0.2690, -0.0258,  0.0285,  0.0287,  0.1459,  0.2381
1492035167.6296129227,1492035167.6319499016, -0.3700, -0.0616,  0.0633,  0.0287,  0.1459,  0.2381
1492035167.6323189735,1492035167.6346199512, -0.3700, -0.0616,  0.0633,  0.0287,  0.1459,  0.2381
1492035167.6349871159,1492035167.6372840405, -0.3700, -0.0616,  0.0633,  0.0287,  0.1459,  0.2458
1492035167.6376519203,1492035167.6399459839, -0.3700, -0.0616,  0.0633, -0.0262,  0.1388,  0.2458
1492035167.6403999329,1492035167.6428289413, -0.3700, -0.0616,  0.0633, -0.0262,  0.1388,  0.2458
1492035167.6432058811,1492035167.6456310749, -0.3700, -0.0616,  0.0633, -0.0262,  0.1388,  0.2458
1492035167.6460070610,1492035167.6484339237, -0.3700, -0.0616,  0.0633, -0.0729,  0.1446,  0.2594
1492035167.6488099098,1492035167.6512389183, -0.3700, -0.0873,  0.0650, -0.0729,  0.1446,  0.2594
1492035167.6516160965,1492035167.6540489197, -0.2694, -0.0873,  0.0650, -0.0729,  0.1446,  0.2594
1492035167.6544270515,1492035167.6568579674, -0.2694, -0.0873,  0.0650, -0.0729,  0.1446,  0.2594
1492035167.6572339535,1492035167.6596601009, -0.2694, -0.0873,  0.0650, -0.0755,  0.1356,  0.2593
1492035167.6600470543,1492035167.6624729633, -0.2694, -0.0873,  0.0650, -0.0755,  0.1356,  0.2593
1492035167.6628479958,1492035167.6652801037, -0.2694, -0.0873,  0.0650, -0.0755,  0.1356,  0.2593
1492035167.6656570435,1492035167.6680901051, -0.2694, -0.0873,  0.0650, -0.0755,  0.1356,  0.2509
1492035167.6684679985,1492035167.6708719730, -0.2694, -0.0873,  0.0834, -0.0683,  0.1248,  0.2509
1492035167.6712419987,1492035167.6735448837, -0.1754, -0.0918,  0.0834, -0.0683,  0.1248,  0.2509
1492035167.6739139557,1492035167.6762139797, -0.1754, -0.0918,  0.0834, -0.0683,  0.1248,  0.2509
1492035167.6765830517,1492035167.6788859367, -0.1754, -0.0918,  0.0834, -0.0526,  0.1097,  0.2229
1492035167.6792540550,1492035167.6817018986, -0.1754, -0.0918,  0.0834, -0.0534,  0.1097,  0.2229
1492035167.6820809841,1492035167.6845049858, -0.1754, -0.0918,  0.0834, -0.0534,  0.1097,  0.2229
1492035167.6848809719,1492035167.6873059273, -0.1754, -0.0918,  0.0834, -0.0534,  0.1097,  0.2229
1492035167.6876831055,1492035167.6901218891, -0.1754, -0.0918,  0.0834, -0.0333,  0.0949,  0.1848
1492035167.6904990673,1492035167.6929268837, -0.1524, -0.1182,  0.0782, -0.0333,  0.0949,  0.1848
1492035167.6933050156,1492035167.6957330704, -0.1524, -0.1182,  0.0782, -0.0333,  0.0949,  0.1848
1492035167.6961100101,1492035167.6985340118, -0.1524, -0.1182,  0.0782, -0.0333,  0.0949,  0.1848
1492035167.6990180016,1492035167.7014579773, -0.1524, -0.1182,  0.0782, -0.0101,  0.0830,  0.1400
1492035167.7018361092,1492035167.7042610645, -0.1524, -0.1182,  0.0782, -0.0101,  0.0830,  0.1400
1492035167.7046389580,1492035167.7070670128, -0.1524, -0.1182,  0.0782, -0.0101,  0.0830,  0.1400
1492035167.7074429989,1492035167.7098689079, -0.1524, -0.1182,  0.0782,  0.0133,  0.0696,  0.0954
1492035167.7102560997,1492035167.7126860619, -0.1414, -0.1282,  0.0527,  0.0142,  0.0696,  0.0954
1492035167.7130620480,1492035167.7154929638, -0.1414, -0.1282,  0.0527,  0.0142,  0.0696,  0.0954
1492035167.7158699036,1492035167.7183051109, -0.1414, -0.1282,  0.0527,  0.0142,  0.0696,  0.0954
1492035167.7186810970,1492035167.7210700512, -0.1414, -0.1282,  0.0527,  0.0322,  0.0550,  0.0520
1492035167.7214410305,1492035167.7237451077, -0.1414, -0.1282,  0.0527,  0.0322,  0.0550,  0.0520
1492035167.7241148949,1492035167.7264149189, -0.1414, -0.1282,  0.0527,  0.0322,  0.0550,  0.0520
1492035167.7267830372,1492035167.7290840149, -0.1414, -0.1282,  0.0527,  0.0322,  0.0550,  0.0520
1492035167.7294509411,1492035167.7318980694, -0.1447, -0.1179,  0.0376,  0.0415,  0.0359,  0.0088
1492035167.7322740555,1492035167.7347071171, -0.1447, -0.1179,  0.0376,  0.0415,  0.0359,  0.0088
1492035167.7350850105,1492035167.7375121117, -0.1447, -0.1179,  0.0376,  0.0415,  0.0359,  0.0088
1492035167.7378890514,1492035167.7403268814, -0.1447, -0.1179,  0.0376,  0.0415,  0.0203, -0.0312
1492035167.7407031059,1492035167.7431349754, -0.1447, -0.1179,  0.0376,  0.0476,  0.0169, -0.0312
1492035167.7435140610,1492035167.7459430695, -0.1447, -0.1179,  0.0376,  0.0476,  0.0169, -0.0312
1492035167.7463190556,1492035167.7487499714, -0.1447, -0.1179,  0.0376,  0.0476,  0.0169, -0.0312
1492035167.7491259575,1492035167.7515668869, -0.1485, -0.1034,  0.0154,  0.0502, -0.0010, -0.0667
1492035167.7519450188,1492035167.7543768883, -0.1485, -0.1034,  0.0154,  0.0502, -0.0010, -0.0667
1492035167.7547550201,1492035167.7571849823, -0.1485, -0.1034,  0.0154,  0.0502, -0.0010, -0.0667
1492035167.7575619221,1492035167.7600340843, -0.1485, -0.1034,  0.0154,  0.0502, -0.0010, -0.0667
1492035167.7604060173,1492035167.7628350258, -0.1485, -0.1034,  0.0154,  0.0415, -0.0217, -0.0970
1492035167.7632141113,1492035167.7656409740, -0.1485, -0.1034,  0.0154,  0.0415, -0.0217, -0.0970
1492035167.7660191059,1492035167.7684409618, -0.1485, -0.1034,  0.0154,  0.0415, -0.0217, -0.0970
1492035167.7688190937,1492035167.7711930275, -0.1522, -0.0783,  0.0063,  0.0415, -0.0451, -0.1233
1492035167.7715640068,1492035167.7738659382, -0.1522, -0.0783,  0.0063,  0.0288, -0.0420, -0.1233
1492035167.7742340565,1492035167.7765378952, -0.1522, -0.0783,  0.0063,  0.0288, -0.0420, -0.1233
1492035167.7769091129,1492035167.7792088985, -0.1522, -0.0783,  0.0063,  0.0288, -0.0420, -0.1233
1492035167.7795789242,1492035167.7820780277, -0.1522, -0.0783,  0.0063,  0.0142, -0.0612, -0.1472
1492035167.7824559212,1492035167.7848820686, -0.1522, -0.0783,  0.0063,  0.0142, -0.0612, -0.1472
1492035167.7852580547,1492035167.7876861095, -0.1522, -0.0783,  0.0063,  0.0142, -0.0612, -0.1472
1492035167.7880630493,1492035167.7905020714, -0.1589, -0.0515,  0.0046,  0.0142, -0.0612, -0.1472
1492035167.7908790112,1492035167.7933011055, -0.1589, -0.0515,  0.0046,  0.0011, -0.0797, -0.1718
1492035167.7936799526,1492035167.7961089611, -0.1589, -0.0515,  0.0046,  0.0011, -0.0797, -0.1718
1492035167.7964870930,1492035167.7989170551, -0.1589, -0.0515,  0.0046,  0.0011, -0.0797, -0.1718
1492035167.7992939949,1492035167.8017320633, -0.1589, -0.0515,  0.0046,  0.0011, -0.0797, -0.1952
1492035167.8021109104,1492035167.8045420647, -0.1589, -0.0515,  0.0046, -0.0090, -0.0937, -0.1952
1492035167.8049190044,1492035167.8073511124, -0.1589, -0.0515,  0.0046, -0.0090, -0.0937, -0.1952
1492035167.8077299595,1492035167.8101649284, -0.1745, -0.0258, -0.0084, -0.0090, -0.0937, -0.1952
1492035167.8105430603,1492035167.8129730225, -0.1797, -0.0258, -0.0084, -0.0203, -0.1044, -0.2202
1492035167.8133490086,1492035167.8157761097, -0.1797, -0.0258, -0.0084, -0.0203, -0.1044, -0.2202
1492035167.8162639141,1492035167.8186929226, -0.1797, -0.0258, -0.0084, -0.0203, -0.1044, -0.2202
1492035167.8190689087,1492035167.8214359283, -0.1797, -0.0258, -0.0084, -0.0203, -0.1044, -0.2202
1492035167.8218050003,1492035167.8241059780, -0.1797, -0.0258, -0.0084, -0.0293, -0.1120, -0.2426
1492035167.8244740963,1492035167.8267769814, -0.1797, -0.0258, -0.0084, -0.0293, -0.1120, -0.2426
1492035167.8271470070,1492035167.8294479847, -0.1797,  0.0130, -0.0096, -0.0293, -0.1120, -0.2426
1492035167.8298199177,1492035167.8322770596, -0.1893,  0.0130, -0.0096, -0.0293, -0.1120, -0.2426
1492035167.8326559067,1492035167.8350849152, -0.1893,  0.0130, -0.0096, -0.0325, -0.1187, -0.2648
1492035167.8354609013,1492035167.8378880024, -0.1893,  0.0130, -0.0096, -0.0325, -0.1187, -0.2648
1492035167.8382670879,1492035167.8407020569, -0.1893,  0.0130, -0.0096, -0.0325, -0.1187, -0.2648
1492035167.8410789967,1492035167.8435099125, -0.1893,  0.0130, -0.0096, -0.0325, -0.1241, -0.2819
1492035167.8438858986,1492035167.8463149071, -0.1893,  0.0130, -0.0096, -0.0316, -0.1241, -0.2819
1492035167.8466920853,1492035167.8491230011, -0.1893,  0.0130,  0.0084, -0.0316, -0.1241, -0.2819
1492035167.8495020866,1492035167.8519411087, -0.1991,  0.0478,  0.0084, -0.0316, -0.1241, -0.2819
1492035167.8523190022,1492035167.8547439575, -0.1991,  0.0478,  0.0084, -0.0193, -0.1284, -0.2939
1492035167.8551208973,1492035167.8575520515, -0.1991,  0.0478,  0.0084, -0.0193, -0.1284, -0.2939
1492035167.8579299450,1492035167.8603579998, -0.1991,  0.0478,  0.0084, -0.0193, -0.1284, -0.2939
1492035167.8607370853,1492035167.8631670475, -0.1991,  0.0478,  0.0084, -0.0193, -0.1284, -0.2939
1492035167.8635420799,1492035167.8659720421, -0.1991,  0.0478,  0.0084, -0.0072, -0.1331, -0.2993
1492035167.8663499355,1492035167.8687770367, -0.1991,  0.0478,  0.0050, -0.0072, -0.1331, -0.2993
1492035167.8691558838,1492035167.8715469837, -0.2010,  0.0759,  0.0050, -0.0072, -0.1331, -0.2993
1492035167.8719179630,1492035167.8742160797, -0.2010,  0.0759,  0.0050, -0.0072, -0.1331, -0.2968
1492035167.8745861053,1492035167.8768858910, -0.2010,  0.0759,  0.0050, -0.0039, -0.1394, -0.2968
1492035167.8772559166,1492035167.8795630932, -0.2010,  0.0759,  0.0050, -0.0039, -0.1394, -0.2968
1492035167.8799331188,1492035167.8823599815, -0.2010,  0.0759,  0.0050, -0.0039, -0.1394, -0.2968
1492035167.8827390671,1492035167.8851680756, -0.2010,  0.0759,  0.0050, -0.0128, -0.1442, -0.2874
1492035167.8855440617,1492035167.8879709244, -0.2010,  0.0759,  0.0050, -0.0128, -0.1442, -0.2874
1492035167.8883490562,1492035167.8908460140, -0.2039,  0.1083, -0.0169, -0.0128, -0.1442, -0.2874
1492035167.8912239075,1492035167.8936479092, -0.2039,  0.1083, -0.0169, -0.0128, -0.1442, -0.2874
1492035167.8940238953,1492035167.8964509964, -0.2039,  0.1083, -0.0169, -0.0278, -0.1481, -0.2783
1492035167.8968269825,1492035167.8992519379, -0.2039,  0.1083, -0.0169, -0.0278, -0.1481, -0.2783
1492035167.8996279240,1492035167.9020678997, -0.2039,  0.1083, -0.0169, -0.0278, -0.1481, -0.2783
1492035167.9024450779,1492035167.9048750401, -0.2039,  0.1083, -0.0169, -0.0278, -0.1481, -0.2663
1492035167.9052519798,1492035167.9076800346, -0.2039,  0.1083, -0.0169, -0.0337, -0.1516, -0.2663
1492035167.9080569744,1492035167.9104969501, -0.2024,  0.1600, -0.0267, -0.0337, -0.1516, -0.2663
1492035167.9108760357,1492035167.9132978916, -0.2024,  0.1600, -0.0267, -0.0337, -0.1516, -0.2663
1492035167.9136729240,1492035167.9161009789, -0.2024,  0.1600, -0.0267, -0.0259, -0.1537, -0.2537
1492035167.9164791107,1492035167.9189040661, -0.2024,  0.1600, -0.0267, -0.0259, -0.1537, -0.2537
1492035167.9192810059,1492035167.9216310978, -0.2024,  0.1600, -0.0267, -0.0259, -0.1537, -0.2537
1492035167.9220020771,1492035167.9243080616, -0.2024,  0.1600, -0.0267, -0.0259, -0.1537, -0.2537
1492035167.9246759415,1492035167.9269781113, -0.2024,  0.1600, -0.0267, -0.0132, -0.1508, -0.2419
1492035167.9273478985,1492035167.9296519756, -0.2125,  0.1681, -0.0318, -0.0132, -0.1508, -0.2419
1492035167.9300520420,1492035167.9324779510, -0.2125,  0.1681, -0.0318, -0.0132, -0.1508, -0.2419
1492035167.9329600334,1492035167.9353849888, -0.2125,  0.1681, -0.0318, -0.0132, -0.1508, -0.2263
1492035167.9357619286,1492035167.9381890297, -0.2125,  0.1681, -0.0318,  0.0026, -0.1401, -0.2249
1492035167.9385659695,1492035167.9410469532, -0.2125,  0.1681, -0.0318,  0.0026, -0.1401, -0.2249
1492035167.9414250851,1492035167.9438519478, -0.2125,  0.1681, -0.0318,  0.0026, -0.1401, -0.2249
1492035167.9442300797,1492035167.9466569424, -0.2125,  0.1681, -0.0318,  0.0244, -0.1219, -0.2029
1492035167.9470329285,1492035167.9494531155, -0.2137,  0.1850, -0.0346,  0.0244, -0.1219, -0.2029
1492035167.9498310089,1492035167.9522650242, -0.2137,  0.1850, -0.0346,  0.0244, -0.1219, -0.2029
1492035167.9526410103,1492035167.9550650120, -0.2137,  0.1850, -0.0346,  0.0244, -0.1219, -0.2029
1492035167.9554419518,1492035167.9578700066, -0.2137,  0.1850, -0.0346,  0.0449, -0.0955, -0.1763
1492035167.9582469463,1492035167.9606568813, -0.2137,  0.1850, -0.0346,  0.0449, -0.0955, -0.1763
1492035167.9610259533,1492035167.9633290768, -0.2137,  0.1850, -0.0346,  0.0449, -0.0955, -0.1763
1492035167.9636991024,1492035167.9660000801, -0.2137,  0.1850, -0.0346,  0.0449, -0.0955, -0.1763
1492035167.9663701057,1492035167.9686760902, -0.2032,  0.1986, -0.0398,  0.0611, -0.0685, -0.1440
1492035167.9690461159,1492035167.9714539051, -0.2032,  0.1986, -0.0398,  0.0611, -0.0685, -0.1440
1492035167.9718310833,1492035167.9742441177, -0.2032,  0.1986, -0.0398,  0.0611, -0.0685, -0.1440
1492035167.9746189117,1492035167.9770309925, -0.2032,  0.1986, -0.0398,  0.0611, -0.0450, -0.1065
1492035167.9774100780,1492035167.9798219204, -0.2032,  0.1986, -0.0398,  0.0744, -0.0404, -0.1065
1492035167.9802069664,1492035167.9825940132, -0.2032,  0.1986, -0.0398,  0.0744, -0.0404, -0.1065
1492035167.9829680920,1492035167.9853589535, -0.2032,  0.1986, -0.0398,  0.0744, -0.0404, -0.1065
1492035167.9857320786,1492035167.9881229401, -0.2032,  0.2103, -0.0431,  0.0885, -0.0147, -0.0667
1492035167.9884979725,1492035167.9909460545, -0.1678,  0.2103, -0.0431,  0.0885, -0.0147, -0.0667
1492035167.9913239479,1492035167.9937529564, -0.1678,  0.2103, -0.0431,  0.0885, -0.0147, -0.0667
1492035167.9941289425,1492035167.9965569973, -0.1678,  0.2103, -0.0431,  0.0885, -0.0147, -0.0667
1492035167.9969348907,1492035167.9993579388, -0.1678,  0.2103, -0.0431,  0.1091,  0.0041, -0.0312
1492035167.9997379780,1492035168.0021939278, -0.1678,  0.2103, -0.0431,  0.1091,  0.0041, -0.0312
1492035168.0025739670,1492035168.0050001144, -0.1678,  0.2103, -0.0431,  0.1091,  0.0041, -0.0312
1492035168.0053770542,1492035168.0078079700, -0.1678,  0.1947, -0.0459,  0.1091,  0.0041,  0.0016
1492035168.0081880093,1492035168.0106019974, -0.1296,  0.1898, -0.0459,  0.1220,  0.0185,  0.0016
1492035168.0109729767,1492035168.0132749081, -0.1296,  0.1898, -0.0459,  0.1220,  0.0185,  0.0016
1492035168.0136449337,1492035168.0159499645, -0.1296,  0.1898, -0.0459,  0.1220,  0.0185,  0.0016
1492035168.0163190365,1492035168.0186190605, -0.1296,  0.1898, -0.0459,  0.1349,  0.0139,  0.0268
1492035168.0189859867,1492035168.0212941170, -0.1296,  0.1898, -0.0459,  0.1349,  0.0139,  0.0268
1492035168.0216619968,1492035168.0239601135, -0.1296,  0.1898, -0.0459,  0.1349,  0.0139,  0.0268
1492035168.0243299007,1492035168.0266289711, -0.1296,  0.1898, -0.0459,  0.1349,  0.0139,  0.0268
1492035168.0269970894,1492035168.0292971134, -0.0953,  0.1693, -0.1350,  0.1271,  0.0374,  0.0606
1492035168.0296640396,1492035168.0320849419, -0.0953,  0.1693, -0.1350,  0.1271,  0.0374,  0.0606
1492035168.0324618816,1492035168.0348939896, -0.0953,  0.1693, -0.1350,  0.1271,  0.0374,  0.0606
1492035168.0352699757,1492035168.0376939774, -0.0953,  0.1693, -0.1350,  0.1271,  0.0374,  0.0606
1492035168.0380690098,1492035168.0405080318, -0.0953,  0.1693, -0.1350,  0.0591,  0.0821,  0.1399
1492035168.0408840179,1492035168.0433089733, -0.0953,  0.1693, -0.1350,  0.0591,  0.0821,  0.1399
1492035168.0436849594,1492035168.0461130142, -0.0953,  0.1693, -0.1350,  0.0591,  0.0821,  0.1399
1492035168.0464899540,1492035168.0489149094, -0.1949,  0.0971, -0.1049,  0.0591,  0.0821,  0.1783
1492035168.0494089127,1492035168.0518510342, -0.1949,  0.0971, -0.1049, -0.0055,  0.0612,  0.1783
1492035168.0522289276,1492035168.0546579361, -0.1949,  0.0971, -0.1049, -0.0055,  0.0612,  0.1783
1492035168.0550379753,1492035168.0574679375, -0.1949,  0.0971, -0.1049, -0.0055,  0.0612,  0.1783
1492035168.0578451157,1492035168.0602829456, -0.1949,  0.0971, -0.1049, -0.1485, -0.0026,  0.1925
1492035168.0606610775,1492035168.0630829334, -0.1949,  0.0971, -0.1049, -0.1485, -0.0026,  0.1925
1492035168.0634610653,1492035168.0658841133, -0.1949,  0.0971, -0.1049, -0.1485, -0.0026,  0.1925
1492035168.0662600994,1492035168.0686879158, -0.6570, -0.0771,  0.1075, -0.1485, -0.0026,  0.1925
1492035168.0690650940,1492035168.0714290142, -0.6570, -0.0771,  0.1075, -0.1013, -0.0111,  0.2069
1492035168.0717980862,1492035168.0741040707, -0.6570, -0.0771,  0.1075, -0.1013, -0.0111,  0.2069
1492035168.0744740963,1492035168.0767750740, -0.6570, -0.0771,  0.1075, -0.1013, -0.0111,  0.2069
1492035168.0771470070,1492035168.0794460773, -0.6570, -0.0771,  0.1075, -0.1013, -0.0111,  0.2850
1492035168.0798161030,1492035168.0822749138, -0.6570, -0.0771,  0.1075,  0.0121,  0.0568,  0.2886
1492035168.0826520920,1492035168.0850770473, -0.6570, -0.0771,  0.1075,  0.0121,  0.0568,  0.2886
1492035168.0854549408,1492035168.0878770351, -0.1470, -0.0118,  0.0943,  0.0121,  0.0568,  0.2886
1492035168.0882549286,1492035168.0906929970, -0.1470, -0.0118,  0.0943, -0.0797,  0.0471,  0.3484
1492035168.0910689831,1492035168.0935029984, -0.1470, -0.0118,  0.0943, -0.0797,  0.0471,  0.3484
1492035168.0938808918,1492035168.0963110924, -0.1470, -0.0118,  0.0943, -0.0797,  0.0471,  0.3484
1492035168.0966870785,1492035168.0991120338, -0.1470, -0.0118,  0.0943, -0.0797,  0.0471,  0.3484
1492035168.0994889736,1492035168.1019270420, -0.1470, -0.0118,  0.0943, -0.0621,  0.0665,  0.3423
1492035168.1023058891,1492035168.1047239304, -0.1470, -0.0118,  0.0943, -0.0621,  0.0665,  0.3423
1492035168.1050999165,1492035168.1075289249, -0.1030,  0.1480,  0.0067, -0.0621,  0.0665,  0.3423
1492035168.1079080105,1492035168.1103370190, -0.1030,  0.1480,  0.0067, -0.0621,  0.0665,  0.3579
1492035168.1107139587,1492035168.1131439209, -0.1030,  0.1480,  0.0067,  0.0447,  0.0541,  0.3587
1492035168.1135220528,1492035168.1164450645, -0.1030,  0.1480,  0.0067,  0.0447,  0.0541,  0.3587
1492035168.1168179512,1492035168.1191139221, -0.1030,  0.1480,  0.0067,  0.0447,  0.0541,  0.3587
1492035168.1194860935,1492035168.1218800545, -0.1030,  0.1480,  0.0067,  0.0008,  0.0310,  0.3435
1492035168.1222519875,1492035168.1245501041, -0.1030,  0.1480,  0.0067,  0.0008,  0.0310,  0.3435
1492035168.1249210835,1492035168.1272130013, -0.1272,  0.1513, -0.0758,  0.0008,  0.0310,  0.3435
1492035168.1275839806,1492035168.1298799515, -0.1272,  0.1513, -0.0758,  0.0008,  0.0310,  0.3435
1492035168.1302480698,1492035168.1325430870, -0.1272,  0.1513, -0.0758,  0.0721,  0.0763,  0.2722
1492035168.1329119205,1492035168.1352100372, -0.1272,  0.1513, -0.0758,  0.0721,  0.0763,  0.2722
1492035168.1355791092,1492035168.1378750801, -0.1272,  0.1513, -0.0758,  0.0721,  0.0763,  0.2722
1492035168.1382429600,1492035168.1405909061, -0.1272,  0.1513, -0.0758,  0.0721,  0.0763,  0.2722
1492035168.1409590244,1492035168.1432499886, -0.1272,  0.1513, -0.0758,  0.0849,  0.0435,  0.2402
1492035168.1436209679,1492035168.1459190845, -0.1272,  0.1513,  0.0101,  0.0849,  0.0435,  0.2402
1492035168.1462879181,1492035168.1485850811, -0.1451,  0.0500,  0.0145,  0.0849,  0.0435,  0.2402
1492035168.1489551067,1492035168.1512570381, -0.1451,  0.0500,  0.0145,  0.0849,  0.0435,  0.2402
1492035168.1516249180,1492035168.1539208889, -0.1451,  0.0500,  0.0145,  0.1004,  0.0566,  0.2100
1492035168.1542899609,1492035168.1565868855, -0.1451,  0.0500,  0.0145,  0.1004,  0.0566,  0.2100
1492035168.1569569111,1492035168.1592540741, -0.1451,  0.0500,  0.0145,  0.1004,  0.0566,  0.2100
1492035168.1596260071,1492035168.1619799137, -0.1451,  0.0500,  0.0145,  0.1004,  0.0566,  0.1925
1492035168.1624529362,1492035168.1647570133, -0.1451,  0.0500,  0.0145,  0.0947,  0.0609,  0.1925
1492035168.1651248932,1492035168.1674270630, -0.1738,  0.1119,  0.0191,  0.0947,  0.0609,  0.1925
1492035168.1677949429,1492035168.1701149940, -0.1738,  0.1119,  0.0191,  0.0947,  0.0609,  0.1925
1492035168.1704928875,1492035168.1729218960, -0.1738,  0.1119,  0.0191,  0.0947,  0.0602,  0.1874
1492035168.1733000278,1492035168.1757230759, -0.1738,  0.1119,  0.0191,  0.0963,  0.0602,  0.1874
1492035168.1760990620,1492035168.1785299778, -0.1738,  0.1119,  0.0191,  0.0963,  0.0602,  0.1874
1492035168.1789059639,1492035168.1813480854, -0.1738,  0.1119,  0.0191,  0.0963,  0.0602,  0.1874
1492035168.1817231178,1492035168.1841468811, -0.1738,  0.1119,  0.0191,  0.1123,  0.0705,  0.1701
1492035168.1845231056,1492035168.1869509220, -0.2386,  0.0739, -0.0704,  0.1123,  0.0705,  0.1701
1492035168.1873259544,1492035168.1897571087, -0.2386,  0.0739, -0.0704,  0.1123,  0.0705,  0.1701
1492035168.1901409626,1492035168.1925680637, -0.2386,  0.0739, -0.0704,  0.1123,  0.0705,  0.1545
1492035168.1929450035,1492035168.1953670979, -0.2386,  0.0739, -0.0704,  0.1367,  0.1079,  0.1504
1492035168.1957430840,1492035168.1981739998, -0.2386,  0.0739, -0.0704,  0.1367,  0.1079,  0.1504
1492035168.1985499859,1492035168.2010378838, -0.2386,  0.0739, -0.0704,  0.1367,  0.1079,  0.1504
1492035168.2014169693,1492035168.2038440704, -0.2386,  0.0739, -0.0704,  0.1836,  0.1593,  0.1485
1492035168.2042200565,1492035168.2066481113, -0.1273,  0.0198,  0.1325,  0.1832,  0.1593,  0.1485
1492035168.2070229053,1492035168.2094490528, -0.1273,  0.0198,  0.1325,  0.1832,  0.1593,  0.1485
1492035168.2098250389,1492035168.2121479511, -0.1273,  0.0198,  0.1325,  0.1832,  0.1593,  0.1485
1492035168.2125179768,1492035168.2148180008, -0.1273,  0.0198,  0.1325,  0.0894,  0.0422,  0.1654
1492035168.2151889801,1492035168.2174921036, -0.1273,  0.0198,  0.1325,  0.0894,  0.0422,  0.1654
1492035168.2178590298,1492035168.2202169895, -0.1273,  0.0198,  0.1325,  0.0894,  0.0422,  0.1654
1492035168.2205910683,1492035168.2230050564, -0.1273,  0.0198,  0.1325,  0.0894,  0.0422,  0.1654
1492035168.2233810425,1492035168.2257928848, -0.1273,  0.1135,  0.0265,  0.0875,  0.0522,  0.1126
1492035168.2261691093,1492035168.2285759449, -0.2073,  0.1124,  0.0265,  0.0875,  0.0522,  0.1126
1492035168.2289509773,1492035168.2313659191, -0.2073,  0.1124,  0.0265,  0.0875,  0.0522,  0.1126
1492035168.2317440510,1492035168.2341599464, -0.2073,  0.1124,  0.0265,  0.0875,  0.0522,  0.0840
1492035168.2345359325,1492035168.2369470596, -0.2073,  0.1124,  0.0265,  0.1013,  0.0627,  0.0840
1492035168.2373230457,1492035168.2397348881, -0.2073,  0.1124,  0.0265,  0.1013,  0.0627,  0.0840
1492035168.2401220798,1492035168.2425711155, -0.2073,  0.1124,  0.0265,  0.1013,  0.0627,  0.0840
1492035168.2429490089,1492035168.2453739643, -0.2073,  0.1124, -0.0067,  0.1005,  0.0793,  0.0582
1492035168.2457530499,1492035168.2481739521, -0.2212,  0.1230, -0.0067,  0.1005,  0.0793,  0.0582
1492035168.2485520840,1492035168.2510490417, -0.2212,  0.1230, -0.0067,  0.1005,  0.0793,  0.0582
1492035168.2514278889,1492035168.2538549900, -0.2212,  0.1230, -0.0067,  0.1005,  0.0793,  0.0582
1492035168.2542319298,1492035168.2566630840, -0.2212,  0.1230, -0.0067,  0.0971,  0.0930,  0.0334
1492035168.2570419312,1492035168.2594640255, -0.2212,  0.1230, -0.0067,  0.0971,  0.0930,  0.0334
1492035168.2598419189,1492035168.2621629238, -0.2212,  0.1230, -0.0067,  0.0971,  0.0930,  0.0334
1492035168.2625339031,1492035168.2648370266, -0.2212,  0.1230,  0.0167,  0.0971,  0.0930,  0.0071
1492035168.2652060986,1492035168.2675080299, -0.2962,  0.0680,  0.0194,  0.0822,  0.0935,  0.0071
1492035168.2678759098,1492035168.2702410221, -0.2962,  0.0680,  0.0194,  0.0822,  0.0935,  0.0071
1492035168.2706210613,1492035168.2730529308, -0.2962,  0.0680,  0.0194,  0.0822,  0.0935,  0.0071
1492035168.2734310627,1492035168.2758591175, -0.2962,  0.0680,  0.0194,  0.0666,  0.0956, -0.0189
1492035168.2762339115,1492035168.2786660194, -0.2962,  0.0680,  0.0194,  0.0692,  0.0956, -0.0189
1492035168.2791519165,1492035168.2816329002, -0.2962,  0.0680,  0.0194,  0.0692,  0.0956, -0.0189
1492035168.2820110321,1492035168.2844340801, -0.2962,  0.0680,  0.0194,  0.0692,  0.0956, -0.0189
1492035168.2848100662,1492035168.2872350216, -0.3588,  0.0212,  0.0547,  0.0192,  0.0883, -0.0225
1492035168.2876119614,1492035168.2900450230, -0.3588,  0.0212,  0.0547,  0.0192,  0.0883, -0.0225
1492035168.2904210091,1492035168.2928531170, -0.3588,  0.0212,  0.0547,  0.0192,  0.0883, -0.0225
1492035168.2932300568,1492035168.2956569195, -0.3588,  0.0212,  0.0547,  0.0192,  0.0883, -0.0117
1492035168.2960329056,1492035168.2984590530, -0.3588,  0.0212,  0.0547, -0.0042,  0.0783, -0.0117
1492035168.2988369465,1492035168.3012740612, -0.3588,  0.0212,  0.0547, -0.0042,  0.0783, -0.0117
1492035168.3016510010,1492035168.3040809631, -0.3588,  0.0212,  0.0547, -0.0042,  0.0783, -0.0117
1492035168.3044579029,1492035168.3068830967, -0.3702, -0.0197,  0.0879, -0.0055,  0.0754,  0.0208
1492035168.3072609901,1492035168.3096840382, -0.3702, -0.0197,  0.0879, -0.0055,  0.0754,  0.0208
1492035168.3100700378,1492035168.3123710155, -0.3702, -0.0197,  0.0879, -0.0055,  0.0754,  0.0208
1492035168.3127410412,1492035168.3150451183, -0.3702, -0.0197,  0.0879, -0.0055,  0.0754,  0.0208
1492035168.3154129982,1492035168.3177149296, -0.3702, -0.0197,  0.0879, -0.0041,  0.0599,  0.0638
1492035168.3180820942,1492035168.3204479218, -0.3702, -0.0197,  0.0879, -0.0041,  0.0599,  0.0638
1492035168.3208270073,1492035168.3232560158, -0.3702, -0.0197,  0.0879, -0.0041,  0.0599,  0.0638
1492035168.3236320019,1492035168.3260600567, -0.2493, -0.0511,  0.1215, -0.0041,  0.0599,  0.0638
1492035168.3264360428,1492035168.3288660049, -0.2493, -0.0511,  0.1215,  0.0130,  0.0532,  0.0837
1492035168.3292419910,1492035168.3316800594, -0.2493, -0.0511,  0.1215,  0.0130,  0.0532,  0.0837
1492035168.3320569992,1492035168.3344829082, -0.2493, -0.0511,  0.1215,  0.0130,  0.0532,  0.0837
1492035168.3348579407,1492035168.3372859955, -0.2493, -0.0511,  0.1215,  0.0130,  0.0473,  0.1000
1492035168.3376629353,1492035168.3400990963, -0.2493, -0.0511,  0.1215,  0.0412,  0.0473,  0.1000
1492035168.3404779434,1492035168.3429028988, -0.2493, -0.0511,  0.1215,  0.0412,  0.0473,  0.1000
1492035168.3432788849,1492035168.3457129002, -0.2365, -0.0637,  0.0814,  0.0412,  0.0473,  0.1000
1492035168.3460879326,1492035168.3485190868, -0.2365, -0.0637,  0.0814,  0.1100,  0.0317,  0.0756
1492035168.3488960266,1492035168.3513360023, -0.2365, -0.0637,  0.0814,  0.1100,  0.0317,  0.0756
1492035168.3517150879,1492035168.3541440964, -0.2365, -0.0637,  0.0814,  0.1100,  0.0317,  0.0756
1492035168.3545200825,1492035168.3569490910, -0.2365, -0.0637,  0.0814,  0.1100,  0.0317,  0.0756
1492035168.3573269844,1492035168.3597500324, -0.2365, -0.0637,  0.0814,  0.1618,  0.0278,  0.0659
1492035168.3601369858,1492035168.3624379635, -0.2365, -0.0637,  0.0814,  0.1618,  0.0278,  0.0659
1492035168.3628079891,1492035168.3651120663, -0.2379,  0.1011, -0.0669,  0.1618,  0.0278,  0.0659
1492035168.3654808998,1492035168.3677890301, -0.2379,  0.1011, -0.0669,  0.1618,  0.0278,  0.0716
1492035168.3681569099,1492035168.3704969883, -0.2379,  0.1011, -0.0669,  0.1968,  0.0583,  0.0716
1492035168.3708748817,1492035168.3733079433, -0.2379,  0.1011, -0.0669,  0.1968,  0.0583,  0.0716
1492035168.3736860752,1492035168.3761138916, -0.2379,  0.1011, -0.0669,  0.1968,  0.0583,  0.0716
1492035168.3764901161,1492035168.3789150715, -0.2379,  0.1011, -0.0669,  0.1506,  0.1352,  0.1433
1492035168.3792910576,1492035168.3817310333, -0.2379,  0.1011, -0.0669,  0.1506,  0.1352,  0.1433
1492035168.3821089268,1492035168.3845379353, -0.2379,  0.0938,  0.0211,  0.1506,  0.1352,  0.1433
1492035168.3849139214,1492035168.3873400688, -0.2028,  0.0938,  0.0211,  0.1506,  0.1352,  0.1433
1492035168.3877160549,1492035168.3901569843, -0.2028,  0.0938,  0.0211,  0.0011,  0.1421,  0.2377
1492035168.3905260563,1492035168.3929519653, -0.2028,  0.0938,  0.0211,  0.0011,  0.1421,  0.2377
1492035168.3933279514,1492035168.3957610130, -0.2028,  0.0938,  0.0211,  0.0011,  0.1421,  0.2377
1492035168.3962519169,1492035168.3986799717, -0.2028,  0.0938,  0.0211,  0.0011,  0.1421,  0.2758
1492035168.3990569115,1492035168.4014921188, -0.2028,  0.0938,  0.0211, -0.0354,  0.1624,  0.2758
1492035168.4018690586,1492035168.4042980671, -0.2028, -0.1813,  0.0470, -0.0354,  0.1624,  0.2758
1492035168.4046759605,1492035168.4071059227, -0.2421, -0.1813,  0.0470, -0.0354,  0.1624,  0.2758
1492035168.4074831009,1492035168.4099109173, -0.2421, -0.1813,  0.0470, -0.0129,  0.1742,  0.2865
1492035168.4103519917,1492035168.4126551151, -0.2421, -0.1813,  0.0470, -0.0129,  0.1742,  0.2865
1492035168.4130229950,1492035168.4153280258, -0.2421, -0.1813,  0.0470, -0.0129,  0.1742,  0.2865
1492035168.4156970978,1492035168.4179940224, -0.2421, -0.1813,  0.0470, -0.0129,  0.1742,  0.2865
1492035168.4183630943,1492035168.4207301140, -0.2421, -0.1813,  0.0470, -0.0135,  0.1883,  0.3313
1492035168.4211080074,1492035168.4235351086, -0.2421, -0.1813,  0.0627, -0.0135,  0.1883,  0.3313
1492035168.4239110947,1492035168.4263379574, -0.2709, -0.0834,  0.0646, -0.0135,  0.1883,  0.3313
1492035168.4267148972,1492035168.4291400909, -0.2709, -0.0834,  0.0646, -0.0135,  0.1883,  0.3313
1492035168.4295139313,1492035168.4319489002, -0.2709, -0.0834,  0.0646,  0.0134,  0.1955,  0.3557
1492035168.4323248863,1492035168.4347500801, -0.2709, -0.0834,  0.0646,  0.0134,  0.1955,  0.3557
1492035168.4351260662,1492035168.4375510216, -0.2709, -0.0834,  0.0646,  0.0134,  0.1955,  0.3557
1492035168.4379279613,1492035168.4403591156, -0.2709, -0.0834,  0.0646,  0.0212,  0.2098,  0.3459
1492035168.4407351017,1492035168.4431600571, -0.2709, -0.0834,  0.0646,  0.0213,  0.2098,  0.3459
1492035168.4435369968,1492035168.4459640980, -0.1421, -0.0779,  0.1010,  0.0213,  0.2098,  0.3459
1492035168.4463419914,1492035168.4487650394, -0.1421, -0.0779,  0.1010,  0.0213,  0.2098,  0.3459
1492035168.4491410255,1492035168.4515709877, -0.1421, -0.0779,  0.1010,  0.0364,  0.1942,  0.3036
1492035168.4519479275,1492035168.4543759823, -0.1421, -0.0779,  0.1010,  0.0364,  0.1942,  0.3036
1492035168.4547541142,1492035168.4571819305, -0.1421, -0.0779,  0.1010,  0.0364,  0.1942,  0.3036
1492035168.4575600624,1492035168.4600279331, -0.1421, -0.0779,  0.1010,  0.0364,  0.1942,  0.3036
1492035168.4603979588,1492035168.4626998901, -0.1421, -0.0779,  0.1010,  0.1033,  0.1899,  0.2502
1492035168.4630699158,1492035168.4653739929, -0.2119, -0.1482,  0.0290,  0.1033,  0.1899,  0.2502
1492035168.4657421112,1492035168.4680430889, -0.2119, -0.1482,  0.0290,  0.1033,  0.1899,  0.2502
1492035168.4684119225,1492035168.4707610607, -0.2119, -0.1482,  0.0290,  0.1033,  0.1899,  0.2271
1492035168.4711389542,1492035168.4735670090, -0.2119, -0.1482,  0.0290,  0.1320,  0.1920,  0.2271
1492035168.4739439487,1492035168.4763689041, -0.2119, -0.1482,  0.0290,  0.1320,  0.1920,  0.2271
1492035168.4767439365,1492035168.4791729450, -0.2119, -0.1482,  0.0290,  0.1320,  0.1920,  0.2271
1492035168.4795489311,1492035168.4819819927, -0.2119, -0.1482,  0.0290,  0.1313,  0.1877,  0.2073
1492035168.4823579788,1492035168.4847860336, -0.1909, -0.1241,  0.0622,  0.1313,  0.1877,  0.2073
1492035168.4851629734,1492035168.4875900745, -0.1909, -0.1241,  0.0622,  0.1313,  0.1877,  0.2073
1492035168.4879660606,1492035168.4904360771, -0.1909, -0.1241,  0.0622,  0.1313,  0.1877,  0.2073
1492035168.4908161163,1492035168.4932420254, -0.1909, -0.1241,  0.0622,  0.1330,  0.1849,  0.1824
1492035168.4936180115,1492035168.4960429668, -0.1909, -0.1241,  0.0622,  0.1330,  0.1849,  0.1824
1492035168.4964189529,1492035168.4988501072, -0.1909, -0.1241,  0.0622,  0.1330,  0.1849,  0.1824
1492035168.4992270470,1492035168.5016970634, -0.1909, -0.1241,  0.0622,  0.1330,  0.1927,  0.1407
1492035168.5020740032,1492035168.5045030117, -0.2621, -0.0948,  0.0071,  0.0824,  0.1927,  0.1407
1492035168.5048789978,1492035168.5073111057, -0.2621, -0.0948,  0.0071,  0.0824,  0.1927,  0.1407
1492035168.5076880455,1492035168.5101249218, -0.2621, -0.0948,  0.0071,  0.0824,  0.1927,  0.1407
1492035168.5104970932,1492035168.5127971172, -0.2621, -0.0948,  0.0071, -0.0198,  0.1560,  0.0696
1492035168.5132720470,1492035168.5155780315, -0.2621, -0.0948,  0.0071, -0.0198,  0.1560,  0.0696
1492035168.5159471035,1492035168.5182518959, -0.2621, -0.0948,  0.0071, -0.0198,  0.1560,  0.0696
1492035168.5186209679,1492035168.5209710598, -0.2621, -0.0948,  0.0071, -0.0198,  0.1560,  0.0696
1492035168.5213420391,1492035168.5236480236, -0.2301, -0.0559,  0.0626, -0.0696,  0.1249,  0.0188
1492035168.5240180492,1492035168.5263149738, -0.2301, -0.0559,  0.0626, -0.0696,  0.1249,  0.0188
1492035168.5266840458,1492035168.5289800167, -0.2301, -0.0559,  0.0626, -0.0696,  0.1249,  0.0188
1492035168.5293478966,1492035168.5318019390, -0.2301, -0.0559,  0.0626, -0.0696,  0.1249,  0.0188
1492035168.5321800709,1492035168.5346069336, -0.2301, -0.0559,  0.0626, -0.0924,  0.1213, -0.0138
1492035168.5349841118,1492035168.5374081135, -0.2301, -0.0559,  0.0626, -0.0924,  0.1213, -0.0138
1492035168.5377850533,1492035168.5402200222, -0.2301, -0.0559,  0.0626, -0.0924,  0.1213, -0.0138
1492035168.5405969620,1492035168.5430200100, -0.2301, -0.0120,  0.0419, -0.0924,  0.1057, -0.0373
1492035168.5433979034,1492035168.5458281040, -0.1681, -0.0120,  0.0419, -0.1103,  0.1042, -0.0373
1492035168.5462069511,1492035168.5486381054, -0.1681, -0.0120,  0.0419, -0.1103,  0.1042, -0.0373
1492035168.5490159988,1492035168.5514531136, -0.1681, -0.0120,  0.0419, -0.1103,  0.1042, -0.0373
1492035168.5518310070,1492035168.5542519093, -0.1681, -0.0120,  0.0419, -0.1046,  0.0823, -0.0707
1492035168.5546309948,1492035168.5570549965, -0.1681, -0.0120,  0.0419, -0.1046,  0.0823, -0.0707
1492035168.5574340820,1492035168.5598590374, -0.1681, -0.0120,  0.0419, -0.1046,  0.0823, -0.0707
1492035168.5602469444,1492035168.5626740456, -0.1681,  0.0427,  0.0388, -0.1046,  0.0823, -0.0707
1492035168.5630519390,1492035168.5654768944, -0.1371,  0.0453,  0.0388, -0.0926,  0.0544, -0.1184
1492035168.5658550262,1492035168.5682818890, -0.1371,  0.0453,  0.0388, -0.0926,  0.0544, -0.1184
1492035168.5686581135,1492035168.5710470676, -0.1371,  0.0453,  0.0388, -0.0926,  0.0544, -0.1184
1492035168.5714159012,1492035168.5737159252, -0.1371,  0.0453,  0.0388, -0.0926,  0.0075, -0.1880
1492035168.5740859509,1492035168.5763878822, -0.1371,  0.0453,  0.0388, -0.0854,  0.0074, -0.1880
1492035168.5767569542,1492035168.5790579319, -0.1371,  0.0453,  0.0388, -0.0854,  0.0074, -0.1880
1492035168.5794289112,1492035168.5818679333, -0.1371,  0.0453,  0.0388, -0.0854,  0.0074, -0.1880
1492035168.5822420120,1492035168.5846679211, -0.0890,  0.0529,  0.0476, -0.0930, -0.0320, -0.2659
1492035168.5850450993,1492035168.5874669552, -0.0890,  0.0529,  0.0476, -0.0930, -0.0320, -0.2659
1492035168.5878438950,1492035168.5902791023, -0.0890,  0.0529,  0.0476, -0.0930, -0.0320, -0.2659
1492035168.5906569958,1492035168.5930809975, -0.0890,  0.0529,  0.0476, -0.0930, -0.0320, -0.2659
1492035168.5934579372,1492035168.5958828926, -0.0890,  0.0529,  0.0476, -0.1113, -0.0652, -0.3278
1492035168.5962591171,1492035168.5986869335, -0.0890,  0.0529,  0.0476, -0.1113, -0.0652, -0.3278
1492035168.5990650654,1492035168.6014978886, -0.0890,  0.0529,  0.0476, -0.1113, -0.0652, -0.3278
1492035168.6018750668,1492035168.6043009758, -0.1047,  0.0530,  0.0295, -0.1113, -0.0652, -0.3841
1492035168.6046769619,1492035168.6070959568, -0.1047,  0.0530,  0.0295, -0.1225, -0.1036, -0.3841
1492035168.6074728966,1492035168.6098949909, -0.1047,  0.0530,  0.0295, -0.1225, -0.1036, -0.3841
1492035168.6102740765,1492035168.6127018929, -0.1047,  0.0530,  0.0295, -0.1225, -0.1036, -0.3841
1492035168.6130809784,1492035168.6155099869, -0.1047,  0.0530,  0.0295, -0.1086, -0.1402, -0.4394
1492035168.6158881187,1492035168.6183149815, -0.1047,  0.0530,  0.0295, -0.1086, -0.1402, -0.4394
1492035168.6186950207,1492035168.6210839748, -0.1047,  0.0530,  0.0295, -0.1086, -0.1402, -0.4394
1492035168.6214540005,1492035168.6237521172, -0.1203,  0.0760,  0.0459, -0.1086, -0.1402, -0.4394
1492035168.6241219044,1492035168.6264240742, -0.1203,  0.0760,  0.0459, -0.0980, -0.1675, -0.4845
1492035168.6267929077,1492035168.6290919781, -0.1203,  0.0760,  0.0459, -0.0980, -0.1675, -0.4845
1492035168.6295681000,1492035168.6319060326, -0.1203,  0.0760,  0.0459, -0.0980, -0.1675, -0.4845
1492035168.6322770119,1492035168.6345779896, -0.1203,  0.0760,  0.0459, -0.0980, -0.1675, -0.4845
1492035168.6349499226,1492035168.6372499466, -0.1203,  0.0760,  0.0459, -0.0721, -0.1918, -0.5293
1492035168.6376190186,1492035168.6399199963, -0.1203,  0.0760,  0.0459, -0.0721, -0.1918, -0.5293
1492035168.6403551102,1492035168.6427791119, -0.1462,  0.0659,  0.0332, -0.0721, -0.1918, -0.5293
1492035168.6431560516,1492035168.6455869675, -0.1462,  0.0659,  0.0332, -0.0721, -0.1918, -0.5620
1492035168.6459650993,1492035168.6483879089, -0.1462,  0.0659,  0.0332, -0.0570, -0.2148, -0.5620
1492035168.6487629414,1492035168.6512410641, -0.1462,  0.0659,  0.0332, -0.0570, -0.2148, -0.5620
1492035168.6516180038,1492035168.6540460587, -0.1462,  0.0659,  0.0332, -0.0570, -0.2148, -0.5620
1492035168.6544239521,1492035168.6568500996, -0.1462,  0.0659,  0.0332, -0.0394, -0.2433, -0.5911
1492035168.6572260857,1492035168.6596560478, -0.1462,  0.0659,  0.0332, -0.0394, -0.2433, -0.5911
1492035168.6600410938,1492035168.6624670029, -0.1763,  0.0369,  0.0224, -0.0394, -0.2433, -0.5911
1492035168.6628439426,1492035168.6652729511, -0.1763,  0.0369,  0.0224, -0.0394, -0.2433, -0.5911
1492035168.6656498909,1492035168.6680779457, -0.1763,  0.0369,  0.0224, -0.0319, -0.2733, -0.6153
1492035168.6684539318,1492035168.6708528996, -0.1763,  0.0369,  0.0224, -0.0319, -0.2733, -0.6153
1492035168.6712219715,1492035168.6735200882, -0.1763,  0.0369,  0.0224, -0.0319, -0.2733, -0.6153
1492035168.6738889217,1492035168.6761920452, -0.1763,  0.0369,  0.0224, -0.0319, -0.2733, -0.6387
1492035168.6765620708,1492035168.6788649559, -0.1763,  0.0369,  0.0224, -0.0240, -0.3025, -0.6363
1492035168.6792349815,1492035168.6816630363, -0.1763,  0.0604,  0.0248, -0.0240, -0.3025, -0.6363
1492035168.6820399761,1492035168.6844689846, -0.2202,  0.0597,  0.0248, -0.0240, -0.3025, -0.6363
1492035168.6848449707,1492035168.6872739792, -0.2202,  0.0597,  0.0248, -0.0084, -0.3297, -0.6472
1492035168.6876521111,1492035168.6900880337, -0.2202,  0.0597,  0.0248, -0.0082, -0.3297, -0.6472
1492035168.6904649734,1492035168.6928958893, -0.2202,  0.0597,  0.0248, -0.0082, -0.3297, -0.6472
1492035168.6932730675,1492035168.6956970692, -0.2202,  0.0597,  0.0248, -0.0082, -0.3297, -0.6472
1492035168.6960740089,1492035168.6984989643, -0.2202,  0.0597,  0.0248,  0.0104, -0.3519, -0.6461
1492035168.6988759041,1492035168.7013139725, -0.2202,  0.0597,  0.0180,  0.0104, -0.3519, -0.6461
1492035168.7016899586,1492035168.7041180134, -0.2828,  0.0935,  0.0180,  0.0104, -0.3519, -0.6461
1492035168.7044949532,1492035168.7069261074, -0.2828,  0.0935,  0.0180,  0.0104, -0.3519, -0.6461
1492035168.7073020935,1492035168.7097280025, -0.2828,  0.0935,  0.0180,  0.0248, -0.3696, -0.6376
1492035168.7101130486,1492035168.7125470638, -0.2828,  0.0935,  0.0180,  0.0248, -0.3696, -0.6376
1492035168.7129240036,1492035168.7153520584, -0.2828,  0.0935,  0.0180,  0.0248, -0.3696, -0.6376
1492035168.7157270908,1492035168.7181539536, -0.2828,  0.0935,  0.0180,  0.0170, -0.3725, -0.6256
1492035168.7185320854,1492035168.7209150791, -0.2828,  0.0935, -0.0287,  0.0179, -0.3725, -0.6256
1492035168.7212839127,1492035168.7235898972, -0.3521,  0.1121, -0.0287,  0.0179, -0.3725, -0.6256
1492035168.7239599228,1492035168.7262589931, -0.3521,  0.1121, -0.0287,  0.0179, -0.3725, -0.6256
1492035168.7266280651,1492035168.7289290428, -0.3521,  0.1121, -0.0287, -0.0021, -0.3590, -0.6021
1492035168.7292990685,1492035168.7316989899, -0.3521,  0.1121, -0.0287, -0.0021, -0.3590, -0.6021
1492035168.7320768833,1492035168.7345058918, -0.3521,  0.1121, -0.0287, -0.0021, -0.3590, -0.6021
1492035168.7348840237,1492035168.7373099327, -0.3521,  0.1121, -0.0287, -0.0021, -0.3590, -0.6021
1492035168.7376871109,1492035168.7401289940, -0.3521,  0.1121, -0.0287, -0.0161, -0.3335, -0.5580
1492035168.7405059338,1492035168.7429308891, -0.4019,  0.2220, -0.0867, -0.0161, -0.3335, -0.5580
1492035168.7434101105,1492035168.7458391190, -0.4019,  0.2220, -0.0867, -0.0161, -0.3335, -0.5580
1492035168.7462170124,1492035168.7486410141, -0.4019,  0.2220, -0.0867, -0.0161, -0.3022, -0.5017
1492035168.7490179539,1492035168.7514560223, -0.4019,  0.2220, -0.0867, -0.0280, -0.3019, -0.5017
1492035168.7518351078,1492035168.7542600632, -0.4019,  0.2220, -0.0867, -0.0280, -0.3019, -0.5017
1492035168.7546370029,1492035168.7570700645, -0.4019,  0.2220, -0.0867, -0.0280, -0.3019, -0.5017
1492035168.7574460506,1492035168.7598741055, -0.4019,  0.2220, -0.0867, -0.0258, -0.2530, -0.4490
1492035168.7602560520,1492035168.7626810074, -0.3496,  0.3107, -0.1084, -0.0258, -0.2530, -0.4490
1492035168.7630579472,1492035168.7654929161, -0.3496,  0.3107, -0.1084, -0.0258, -0.2530, -0.4490
1492035168.7658710480,1492035168.7682991028, -0.3496,  0.3107, -0.1084, -0.0258, -0.2530, -0.4490
1492035168.7686769962,1492035168.7710709572, -0.3496,  0.3107, -0.1084, -0.0097, -0.1921, -0.3910
1492035168.7714428902,1492035168.7737460136, -0.3496,  0.3107, -0.1084, -0.0097, -0.1921, -0.3910
1492035168.7741169930,1492035168.7764160633, -0.3496,  0.3107, -0.1084, -0.0097, -0.1921, -0.3910
1492035168.7767860889,1492035168.7790830135, -0.3496,  0.3107, -0.1084, -0.0097, -0.1921, -0.3128
1492035168.7794520855,1492035168.7817831039, -0.2564,  0.3885, -0.1037, -0.0016, -0.1478, -0.3187
1492035168.7821528912,1492035168.7844519615, -0.2564,  0.3885, -0.1037, -0.0016, -0.1478, -0.3187
1492035168.7848238945,1492035168.7871229649, -0.2564,  0.3885, -0.1037, -0.0016, -0.1478, -0.3187
1492035168.7874948978,1492035168.7897961140, -0.2564,  0.3885, -0.1037, -0.0016, -0.1322, -0.2541
1492035168.7901821136,1492035168.7926039696, -0.2564,  0.3885, -0.1037, -0.0016, -0.1288, -0.2541
1492035168.7929821014,1492035168.7954099178, -0.2564,  0.3885, -0.1037, -0.0016, -0.1288, -0.2541
1492035168.7957890034,1492035168.7982199192, -0.2564,  0.3885, -0.1037, -0.0016, -0.1288, -0.2541
1492035168.7985990047,1492035168.8010439873, -0.1861,  0.4036, -0.1166,  0.0215, -0.1002, -0.1849
1492035168.8014209270,1492035168.8038449287, -0.1864,  0.4036, -0.1166,  0.0215, -0.1002, -0.1849
1492035168.8042221069,1492035168.8066489697, -0.1864,  0.4036, -0.1166,  0.0215, -0.1002, -0.1849
1492035168.8070271015,1492035168.8094520569, -0.1864,  0.4036, -0.1166,  0.0215, -0.1002, -0.1849
1492035168.8098299503,1492035168.8122739792, -0.1864,  0.4036, -0.1166,  0.0569, -0.0591, -0.1094
1492035168.8126521111,1492035168.8150799274, -0.1864,  0.4036, -0.1166,  0.0569, -0.0591, -0.1094
1492035168.8154571056,1492035168.8178849220, -0.1864,  0.4036, -0.1166,  0.0569, -0.0591, -0.1094
1492035168.8182630539,1492035168.8206739426, -0.1864,  0.3502, -0.1909,  0.0569, -0.0200, -0.0344
1492035168.8210439682,1492035168.8233470917, -0.1474,  0.3502, -0.1909,  0.0752, -0.0163, -0.0344
1492035168.8237159252,1492035168.8260180950, -0.1474,  0.3502, -0.1909,  0.0752, -0.0163, -0.0344
1492035168.8263869286,1492035168.8286869526, -0.1474,  0.3502, -0.1909,  0.0752, -0.0163, -0.0344
1492035168.8290569782,1492035168.8314869404, -0.1474,  0.3502, -0.1909,  0.0843,  0.0092,  0.0300
1492035168.8318641186,1492035168.8342928886, -0.1474,  0.3502, -0.1909,  0.0843,  0.0092,  0.0300
1492035168.8346710205,1492035168.8370969296, -0.1474,  0.3502, -0.1909,  0.0843,  0.0092,  0.0300
1492035168.8374750614,1492035168.8398981094, -0.1474,  0.3502, -0.1882,  0.0843,  0.0092,  0.0300
1492035168.8402750492,1492035168.8426990509, -0.1495,  0.3107, -0.1882,  0.0865,  0.0410,  0.0899
1492035168.8430750370,1492035168.8454959393, -0.1495,  0.3107, -0.1882,  0.0865,  0.0410,  0.0899
1492035168.8458731174,1492035168.8482999802, -0.1495,  0.3107, -0.1882,  0.0865,  0.0410,  0.0899
1492035168.8486769199,1492035168.8511199951, -0.1495,  0.3107, -0.1882,  0.0865,  0.0410,  0.1211
1492035168.8514969349,1492035168.8539209366, -0.1495,  0.3107, -0.1882,  0.0798,  0.0596,  0.1223
1492035168.8542969227,1492035168.8567221165, -0.1495,  0.3107, -0.1882,  0.0798,  0.0596,  0.1223
1492035168.8570990562,1492035168.8595271111, -0.1495,  0.3107, -0.2664,  0.0798,  0.0596,  0.1223
1492035168.8600220680,1492035168.8624520302, -0.1662,  0.2344, -0.2683,  0.0384,  0.1318,  0.1721
1492035168.8628270626,1492035168.8652570248, -0.1662,  0.2344, -0.2683,  0.0384,  0.1318,  0.1721
1492035168.8656330109,1492035168.8680570126, -0.1662,  0.2344, -0.2683,  0.0384,  0.1318,  0.1721
1492035168.8684329987,1492035168.8708260059, -0.1662,  0.2344, -0.2683,  0.0384,  0.1318,  0.1721
1492035168.8711950779,1492035168.8734960556, -0.1662,  0.2344, -0.2683, -0.0076,  0.1616,  0.2764
1492035168.8738648891,1492035168.8761661053, -0.1662,  0.2344, -0.2683, -0.0076,  0.1616,  0.2764
1492035168.8765349388,1492035168.8788390160, -0.1662,  0.2344, -0.2683, -0.0076,  0.1616,  0.2764
1492035168.8792068958,1492035168.8816471100, -0.1819, -0.0286,  0.3148, -0.0076,  0.1616,  0.2764
1492035168.8820240498,1492035168.8844521046, -0.1819, -0.0286,  0.3148, -0.1005, -0.1133,  0.2057
1492035168.8848299980,1492035168.8872590065, -0.1819, -0.0286,  0.3148, -0.1005, -0.1133,  0.2057
1492035168.8876368999,1492035168.8900740147, -0.1819, -0.0286,  0.3148, -0.1005, -0.1133,  0.2057
1492035168.8904519081,1492035168.8928799629, -0.1819, -0.0286,  0.3148, -0.1005, -0.2010,  0.2641
1492035168.8932569027,1492035168.8956859112, -0.1819, -0.0286,  0.3148, -0.0994, -0.2010,  0.2641
1492035168.8960640430,1492035168.8984909058, -0.1819, -0.0286,  0.3148, -0.0994, -0.2010,  0.2641
1492035168.8988659382,1492035168.9013099670, -0.9400, -0.1022, -0.1245, -0.0994, -0.2010,  0.2641
1492035168.9016890526,1492035168.9041121006, -0.9400, -0.1022, -0.1245,  0.0773,  0.1367,  0.3859
1492035168.9044880867,1492035168.9069149494, -0.9400, -0.1022, -0.1245,  0.0773,  0.1367,  0.3859
1492035168.9072918892,1492035168.9097208977, -0.9400, -0.1022, -0.1245,  0.0773,  0.1367,  0.3859
1492035168.9101018906,1492035168.9124069214, -0.9400, -0.1022, -0.1245,  0.0773,  0.1367,  0.3859
1492035168.9127769470,1492035168.9150791168, -0.9400, -0.1022, -0.1245, -0.1791,  0.1412,  0.5094
1492035168.9154469967,1492035168.9177520275, -0.9400, -0.1022, -0.1245, -0.1791,  0.1412,  0.5094
1492035168.9181210995,1492035168.9204800129,  0.0095,  0.0313,  0.1055, -0.1791,  0.1412,  0.5094
1492035168.9208569527,1492035168.9232840538,  0.0095,  0.0313,  0.1055, -0.1791,  0.1412,  0.5289
1492035168.9236609936,1492035168.9260849953,  0.0095,  0.0313,  0.1055,  0.0853,  0.1323,  0.5289
1492035168.9264640808,1492035168.9288880825,  0.0095,  0.0313,  0.1055,  0.0853,  0.1323,  0.5289
1492035168.9292650223,1492035168.9317018986,  0.0095,  0.0313,  0.1055,  0.0853,  0.1323,  0.5289
1492035168.9320790768,1492035168.9345040321,  0.0095,  0.0313,  0.1055, -0.1014,  0.1439,  0.7306
1492035168.9348831177,1492035168.9373080730,  0.0095,  0.0313,  0.1055, -0.1014,  0.1439,  0.7306
1492035168.9376859665,1492035168.9401168823, -0.0199,  0.6267, -0.1735, -0.1014,  0.1439,  0.7306
1492035168.9404931068,1492035168.9429199696, -0.0199,  0.6267, -0.1735, -0.1014,  0.1439,  0.7306
1492035168.9432969093,1492035168.9457249641, -0.0199,  0.6267, -0.1735, -0.1526,  0.2485,  0.4726
1492035168.9461009502,1492035168.9485290051, -0.0199,  0.6267, -0.1735, -0.1526,  0.2485,  0.4726
1492035168.9489049911,1492035168.9513471127, -0.0199,  0.6267, -0.1735, -0.1526,  0.2485,  0.4726
1492035168.9517219067,1492035168.9541499615, -0.0199,  0.6267, -0.1735, -0.1526,  0.2485,  0.2368
1492035168.9545280933,1492035168.9569470882, -0.0199,  0.6267, -0.1735,  0.2231,  0.0562,  0.2368
1492035168.9573230743,1492035168.9597549438, -0.1239, -0.0066, -0.0277,  0.2231,  0.0562,  0.2368
1492035168.9601409435,1492035168.9624400139, -0.1239, -0.0066, -0.0277,  0.2231,  0.0562,  0.2368
1492035168.9628100395,1492035168.9651079178, -0.1239, -0.0066, -0.0277,  0.1996, -0.1536,  0.1182
1492035168.9654779434,1492035168.9677829742, -0.1239, -0.0066, -0.0277,  0.1959, -0.1536,  0.1182
1492035168.9681539536,1492035168.9704949856, -0.1239, -0.0066, -0.0277,  0.1959, -0.1536,  0.1182
1492035168.9708719254,1492035168.9733040333, -0.1239, -0.0066, -0.0277,  0.1959, -0.1536,  0.1182
1492035168.9736809731,1492035168.9761068821, -0.1239, -0.0066, -0.0277,  0.2051, -0.1829, -0.0461
1492035168.9765930176,1492035168.9790210724, -0.1239, -0.0132,  0.0802,  0.2051, -0.1829, -0.0461
1492035168.9793989658,1492035168.9818439484, -0.3532, -0.0132,  0.0802,  0.2051, -0.1829, -0.0461
1492035168.9822208881,1492035168.9846489429, -0.3532, -0.0132,  0.0802,  0.2051, -0.1829, -0.0461
1492035168.9850249290,1492035168.9874560833, -0.3532, -0.0132,  0.0802,  0.1669, -0.0172,  0.1153
1492035168.9878349304,1492035168.9902698994, -0.3532, -0.0132,  0.0802,  0.1669, -0.0172,  0.1153
1492035168.9906470776,1492035168.9930739403, -0.3532, -0.0132,  0.0802,  0.1669, -0.0172,  0.1153
1492035168.9934499264,1492035168.9958789349, -0.3532, -0.0132,  0.0802,  0.1669,  0.0669,  0.2190
1492035168.9962561131,1492035168.9986801147, -0.3532,  0.0884,  0.0312,  0.1163,  0.0669,  0.2190
1492035168.9990561008,1492035169.0015230179, -0.1748,  0.0934,  0.0312,  0.1163,  0.0669,  0.2190
1492035169.0018990040,1492035169.0043280125, -0.1748,  0.0934,  0.0312,  0.1163,  0.0669,  0.2190
1492035169.0047039986,1492035169.0071310997, -0.1748,  0.0934,  0.0312,  0.1150,  0.0629,  0.1660
1492035169.0075080395,1492035169.0099370480, -0.1748,  0.0934,  0.0312,  0.1150,  0.0629,  0.1660
1492035169.0104091167,1492035169.0127129555, -0.1748,  0.0934,  0.0312,  0.1150,  0.0629,  0.1660
1492035169.0130839348,1492035169.0153870583, -0.1748,  0.0934,  0.0312,  0.1150,  0.0629,  0.1660
1492035169.0157558918,1492035169.0180509090, -0.1748,  0.0934, -0.0001,  0.1166,  0.0760,  0.1321
1492035169.0184199810,1492035169.0207269192, -0.2566,  0.0986, -0.0008,  0.1166,  0.0760,  0.1321
1492035169.0210978985,1492035169.0233979225, -0.2566,  0.0986, -0.0008,  0.1166,  0.0760,  0.1321
1492035169.0237660408,1492035169.0260660648, -0.2566,  0.0986, -0.0008,  0.1166,  0.0760,  0.1165
1492035169.0264348984,1492035169.0287311077, -0.2566,  0.0986, -0.0008,  0.1218,  0.0924,  0.1121
1492035169.0291008949,1492035169.0314838886, -0.2566,  0.0986, -0.0008,  0.1218,  0.0924,  0.1121
1492035169.0318629742,1492035169.0342879295, -0.2566,  0.0986, -0.0008,  0.1218,  0.0924,  0.1121
1492035169.0346670151,1492035169.0370919704, -0.2566,  0.0986, -0.0008,  0.1843,  0.1550,  0.0849
1492035169.0374670029,1492035169.0398979187, -0.2994,  0.1158, -0.0832,  0.1827,  0.1550,  0.0849
1492035169.0402719975,1492035169.0426940918, -0.2994,  0.1158, -0.0832,  0.1827,  0.1550,  0.0849
1492035169.0430719852,1492035169.0454969406, -0.2994,  0.1158, -0.0832,  0.1827,  0.1550,  0.0849
1492035169.0458750725,1492035169.0483040810, -0.2994,  0.1158, -0.0832,  0.2281,  0.2007,  0.0450
1492035169.0486819744,1492035169.0511150360, -0.2994,  0.1158, -0.0832,  0.2281,  0.2007,  0.0450
1492035169.0514910221,1492035169.0539190769, -0.2994,  0.1158, -0.0832,  0.2281,  0.2007,  0.0450
1492035169.0542979240,1492035169.0567250252, -0.2994,  0.1158, -0.0832,  0.2281,  0.2007,  0.0450
1492035169.0571019650,1492035169.0595231056, -0.3140,  0.0937,  0.0034,  0.1930,  0.1210,  0.0365
1492035169.0598990917,1492035169.0622251034, -0.3140,  0.0937,  0.0034,  0.1930,  0.1210,  0.0365
1492035169.0625948906,1492035169.0648930073, -0.3140,  0.0937,  0.0034,  0.1930,  0.1210,  0.0365
1492035169.0652620792,1492035169.0675640106, -0.3140,  0.0937,  0.0034,  0.1930,  0.1054,  0.0126
1492035169.0679359436,1492035169.0702691078, -0.3140,  0.0937,  0.0034,  0.1584,  0.1078,  0.0126
1492035169.0706479549,1492035169.0730741024, -0.3140,  0.0937,  0.0034,  0.1584,  0.1078,  0.0126
1492035169.0734500885,1492035169.0758759975, -0.3140,  0.0937,  0.0034,  0.1584,  0.1078,  0.0126
1492035169.0762519836,1492035169.0786778927, -0.4019, -0.0048,  0.1020,  0.1486,  0.1010, -0.0446
1492035169.0790569782,1492035169.0814878941, -0.4019, -0.0048,  0.1020,  0.1486,  0.1010, -0.0446
1492035169.0818660259,1492035169.0842928886, -0.4019, -0.0048,  0.1020,  0.1486,  0.1010, -0.0446
1492035169.0846700668,1492035169.0870959759, -0.4019, -0.0048,  0.1020,  0.1486,  0.1010, -0.0446
1492035169.0874750614,1492035169.0899019241, -0.4019, -0.0048,  0.1020,  0.1622,  0.1053, -0.0420
1492035169.0903279781,1492035169.0927538872, -0.4019, -0.0048,  0.1020,  0.1622,  0.1053, -0.0420
1492035169.0932381153,1492035169.0956659317, -0.4019, -0.0048,  0.1020,  0.1622,  0.1053, -0.0420
1492035169.0960440636,1492035169.0984699726, -0.3554, -0.0614,  0.0968,  0.1622,  0.0974,  0.0443
1492035169.0988469124,1492035169.1012859344, -0.3554, -0.0614,  0.0968,  0.1059,  0.0969,  0.0443
1492035169.1016609669,1492035169.1040859222, -0.3554, -0.0614,  0.0968,  0.1059,  0.0969,  0.0443
1492035169.1044640541,1492035169.1068859100, -0.3554, -0.0614,  0.0968,  0.1059,  0.0969,  0.0443
1492035169.1072640419,1492035169.1096940041, -0.3554, -0.0614,  0.0968,  0.0740,  0.0601,  0.0988
1492035169.1100790501,1492035169.1123809814, -0.3554, -0.0614,  0.0968,  0.0740,  0.0601,  0.0988
1492035169.1127479076,1492035169.1150479317, -0.3554, -0.0614,  0.0968,  0.0740,  0.0601,  0.0988
1492035169.1154150963,1492035169.1177148819, -0.3554, -0.1287,  0.1382,  0.0740,  0.0601,  0.0988
1492035169.1180830002,1492035169.1204490662, -0.2101, -0.1287,  0.1382,  0.0551, -0.0030,  0.1220
1492035169.1208269596,1492035169.1232590675, -0.2101, -0.1287,  0.1382,  0.0551, -0.0030,  0.1220
1492035169.1236350536,1492035169.1260600090, -0.2101, -0.1287,  0.1382,  0.0551, -0.0030,  0.1220
1492035169.1264359951,1492035169.1288568974, -0.2101, -0.1287,  0.1382,  0.0551, -0.0030,  0.0361
1492035169.1292340755,1492035169.1316668987, -0.2101, -0.1287,  0.1382,  0.1474, -0.0083,  0.0374
1492035169.1320440769,1492035169.1344730854, -0.2101, -0.1287,  0.1382,  0.1474, -0.0083,  0.0374
1492035169.1348490715,1492035169.1372780800, -0.2101, -0.1287, -0.0005,  0.1474, -0.0083,  0.0374
1492035169.1376559734,1492035169.1400909424, -0.2914, -0.0446, -0.0005,  0.2099,  0.0209,  0.0269
1492035169.1404678822,1492035169.1428940296, -0.2914, -0.0446, -0.0005,  0.2086,  0.0209,  0.0269
1492035169.1432700157,1492035169.1456940174, -0.2914, -0.0446, -0.0005,  0.2086,  0.0209,  0.0269
1492035169.1460700035,1492035169.1484990120, -0.2914, -0.0446, -0.0005,  0.2086,  0.0209,  0.0269
1492035169.1488759518,1492035169.1512529850, -0.2914, -0.0446, -0.0005,  0.1499,  0.0832,  0.0791
1492035169.1516239643,1492035169.1539220810, -0.2914, -0.0446, -0.0005,  0.1499,  0.0832,  0.0791
1492035169.1542909145,1492035169.1565890312, -0.2914, -0.0446,  0.0073,  0.1499,  0.0832,  0.0791
1492035169.1569590569,1492035169.1592619419, -0.1631,  0.1946,  0.0069,  0.1499,  0.0832,  0.0791
1492035169.1596310139,1492035169.1619920731, -0.1631,  0.1946,  0.0069,  0.0699,  0.1329,  0.1732
1492035169.1623620987,1492035169.1646630764, -0.1631,  0.1946,  0.0069,  0.0699,  0.1329,  0.1732
1492035169.1650331020,1492035169.1673328876, -0.1631,  0.1946,  0.0069,  0.0699,  0.1329,  0.1732
1492035169.1677041054,1492035169.1700389385, -0.1631,  0.1946,  0.0069,  0.0699,  0.1329,  0.2201
1492035169.1704099178,1492035169.1727130413, -0.1631,  0.1946,  0.0069,  0.0490,  0.1545,  0.2230
1492035169.1730821133,1492035169.1753809452, -0.1631,  0.1946,  0.0069,  0.0490,  0.1545,  0.2230
1492035169.1757500172,1492035169.1780459881, -0.1686, -0.0348,  0.1167,  0.0490,  0.1545,  0.2230
1492035169.1784150600,1492035169.1807620525, -0.1686, -0.0348,  0.1167,  0.0490,  0.1701,  0.2546
1492035169.1811408997,1492035169.1835689545, -0.1686, -0.0348,  0.1167,  0.0711,  0.1713,  0.2546
1492035169.1839458942,1492035169.1863710880, -0.1686, -0.0348,  0.1167,  0.0711,  0.1713,  0.2546
1492035169.1867480278,1492035169.1891739368, -0.1686, -0.0348,  0.1167,  0.0711,  0.1713,  0.2546
1492035169.1895489693,1492035169.1919789314, -0.1686, -0.0348,  0.1167,  0.0905,  0.1647,  0.2639
1492035169.1923580170,1492035169.1947870255, -0.1686, -0.0348,  0.1167,  0.0905,  0.1647,  0.2639
1492035169.1951639652,1492035169.1975889206, -0.2059, -0.1382,  0.1020,  0.0905,  0.1647,  0.2639
1492035169.1979660988,1492035169.2004320621, -0.2059, -0.1382,  0.1020,  0.0905,  0.1647,  0.2639
1492035169.2008099556,1492035169.2032320499, -0.2059, -0.1382,  0.1020,  0.1062,  0.1503,  0.2942
1492035169.2036070824,1492035169.2060310841, -0.2059, -0.1382,  0.1020,  0.1062,  0.1503,  0.2942
1492035169.2064061165,1492035169.2088370323, -0.2059, -0.1382,  0.1020,  0.1062,  0.1503,  0.2942
1492035169.2093260288,1492035169.2117528915, -0.2059, -0.1382,  0.1020,  0.1062,  0.1425,  0.3334
1492035169.2121291161,1492035169.2145519257, -0.2059, -0.1382,  0.1020,  0.1451,  0.1449,  0.3334
1492035169.2149279118,1492035169.2173581123, -0.1590, -0.0005,  0.0570,  0.1451,  0.1449,  0.3334
1492035169.2177329063,1492035169.2201490402, -0.1590, -0.0005,  0.0570,  0.1451,  0.1449,  0.3334
1492035169.2205190659,1492035169.2228169441, -0.1590, -0.0005,  0.0570,  0.1664,  0.1812,  0.3350
1492035169.2231869698,1492035169.2254850864, -0.1590, -0.0005,  0.0570,  0.1664,  0.1812,  0.3350
1492035169.2258539200,1492035169.2281570435, -0.1590, -0.0005,  0.0570,  0.1664,  0.1812,  0.3350
1492035169.2285261154,1492035169.2308990955, -0.1590, -0.0005,  0.0570,  0.1664,  0.1812,  0.3350
1492035169.2312750816,1492035169.2337000370, -0.1590, -0.0005,  0.0570,  0.1695,  0.2037,  0.3183
1492035169.2340779305,1492035169.2365028858, -0.1590, -0.1411,  0.0669,  0.1695,  0.2037,  0.3183
1492035169.2368800640,1492035169.2393000126, -0.2170, -0.1430,  0.0669,  0.1695,  0.2037,  0.3183
1492035169.2396759987,1492035169.2421119213, -0.2170, -0.1430,  0.0669,  0.1695,  0.2037,  0.2714
1492035169.2424879074,1492035169.2449109554, -0.2170, -0.1430,  0.0669,  0.1902,  0.2179,  0.2675
1492035169.2452878952,1492035169.2477190495, -0.2170, -0.1430,  0.0669,  0.1902,  0.2179,  0.2675
1492035169.2480950356,1492035169.2505419254, -0.2170, -0.1430,  0.0669,  0.1902,  0.2179,  0.2675
1492035169.2509179115,1492035169.2533440590, -0.2170, -0.1430,  0.0669,  0.2023,  0.2322,  0.2444
1492035169.2537219524,1492035169.2561459541, -0.2170, -0.1430,  0.0268,  0.2023,  0.2322,  0.2444
1492035169.2565209866,1492035169.2589490414, -0.2522, -0.1598,  0.0268,  0.2023,  0.2322,  0.2444
1492035169.2593240738,1492035169.2617590427, -0.2522, -0.1598,  0.0268,  0.2023,  0.2322,  0.2444
1492035169.2621350288,1492035169.2645580769, -0.2522, -0.1598,  0.0268,  0.1572,  0.2398,  0.2482
1492035169.2649350166,1492035169.2673571110, -0.2522, -0.1598,  0.0268,  0.1572,  0.2398,  0.2482
1492035169.2677319050,1492035169.2701690197, -0.2522, -0.1598,  0.0268,  0.1572,  0.2398,  0.2482
1492035169.2705850601,1492035169.2728850842, -0.2522, -0.1598,  0.0268,  0.1572,  0.2398,  0.2404
1492035169.2732529640,1492035169.2755510807, -0.2522, -0.1598,  0.0424,  0.1279,  0.2334,  0.2350
1492035169.2759211063,1492035169.2782180309, -0.2415, -0.1277,  0.0421,  0.1279,  0.2334,  0.2350
1492035169.2785871029,1492035169.2808940411, -0.2415, -0.1277,  0.0421,  0.1279,  0.2334,  0.2350
1492035169.2812619209,1492035169.2835628986, -0.2415, -0.1277,  0.0421,  0.1279,  0.2334,  0.2136
1492035169.2839300632,1492035169.2862300873, -0.2415, -0.1277,  0.0421,  0.1116,  0.2386,  0.2136
1492035169.2865979671,1492035169.2888970375, -0.2415, -0.1277,  0.0421,  0.1116,  0.2386,  0.2136
1492035169.2892661095,1492035169.2916920185, -0.2415, -0.1277,  0.0421,  0.1116,  0.2386,  0.2136
1492035169.2920711040,1492035169.2944960594, -0.2415, -0.1277,  0.0421,  0.0566,  0.2469,  0.1619
1492035169.2948710918,1492035169.2972970009, -0.3005, -0.1152,  0.0222,  0.0566,  0.2469,  0.1619
1492035169.2976729870,1492035169.3001120090, -0.3005, -0.1152,  0.0222,  0.0566,  0.2469,  0.1619
1492035169.3004889488,1492035169.3029139042, -0.3005, -0.1152,  0.0222,  0.0566,  0.2469,  0.1619
1492035169.3032889366,1492035169.3057138920, -0.3005, -0.1152,  0.0222, -0.0507,  0.2192,  0.0968
1492035169.3060920238,1492035169.3085119724, -0.3005, -0.1152,  0.0222, -0.0507,  0.2192,  0.0968
1492035169.3088889122,1492035169.3113238811, -0.3005, -0.1152,  0.0222, -0.0507,  0.2192,  0.0968
1492035169.3131361008,1492035169.3154489994, -0.3005, -0.1152,  0.0650, -0.1428,  0.1960,  0.0518
1492035169.3158340454,1492035169.3181309700, -0.2044, -0.1065,  0.0650, -0.1428,  0.1960,  0.0518
1492035169.3185029030,1492035169.3208820820, -0.2044, -0.1065,  0.0650, -0.1428,  0.1960,  0.0518
1492035169.3212509155,1492035169.3235449791, -0.2044, -0.1065,  0.0650, -0.1428,  0.1960,  0.0518
1492035169.3240458965,1492035169.3263449669, -0.2044, -0.1065,  0.0650, -0.1881,  0.2000,  0.0180
1492035169.3267149925,1492035169.3290119171, -0.2044, -0.1065,  0.0650, -0.1881,  0.2000,  0.0180
1492035169.3293819427,1492035169.3317430019, -0.2044, -0.1065,  0.0650, -0.1881,  0.2000,  0.0180
1492035169.3321120739,1492035169.3344099522, -0.2044, -0.1065,  0.0650, -0.1881,  0.2000,  0.0180
1492035169.3347799778,1492035169.3370800018, -0.1644, -0.0432,  0.0436, -0.2244,  0.1845, -0.0223
1492035169.3374490738,1492035169.3397459984, -0.1644, -0.0432,  0.0436, -0.2244,  0.1845, -0.0223
1492035169.3401060104,1492035169.3423960209, -0.1644, -0.0432,  0.0436, -0.2244,  0.1845, -0.0223
1492035169.3427650928,1492035169.3450639248, -0.1644, -0.0432,  0.0436, -0.2244,  0.1845, -0.0688
1492035169.3454339504,1492035169.3477299213, -0.1644, -0.0432,  0.0436, -0.2096,  0.1461, -0.0688
1492035169.3480980396,1492035169.3504469395, -0.1644, -0.0432,  0.0436, -0.2096,  0.1461, -0.0688
1492035169.3508169651,1492035169.3531179428, -0.1644, -0.0432,  0.0436, -0.2096,  0.1461, -0.0688
1492035169.3534879684,1492035169.3557829857, -0.1253,  0.0354,  0.0683, -0.2096,  0.1148, -0.1284
1492035169.3561530113,1492035169.3584499359, -0.1298,  0.0354,  0.0683, -0.1716,  0.1101, -0.1284
1492035169.3588190079,1492035169.3611669540, -0.1298,  0.0354,  0.0683, -0.1716,  0.1101, -0.1284
1492035169.3615369797,1492035169.3638401031, -0.1298,  0.0354,  0.0683, -0.1716,  0.1101, -0.1284
1492035169.3642089367,1492035169.3665060997, -0.1298,  0.0354,  0.0683, -0.1551,  0.0667, -0.1939
1492035169.3668749332,1492035169.3691740036, -0.1298,  0.0354,  0.0683, -0.1551,  0.0667, -0.1939
1492035169.3695418835,1492035169.3718550205, -0.1298,  0.0354,  0.0683, -0.1551,  0.0667, -0.1939
1492035169.3722240925,1492035169.3745241165, -0.1298,  0.0354,  0.0683, -0.1551,  0.0667, -0.1939
1492035169.3748919964,1492035169.3771879673, -0.0929,  0.0260,  0.0756, -0.1529,  0.0272, -0.2734
1492035169.3775548935,1492035169.3798520565, -0.0929,  0.0260,  0.0756, -0.1529,  0.0272, -0.2734
1492035169.3802421093,1492035169.3825430870, -0.0929,  0.0260,  0.0756, -0.1529,  0.0272, -0.2734
1492035169.3829131126,1492035169.3852090836, -0.0929,  0.0260,  0.0756, -0.1529,  0.0272, -0.2734
1492035169.3855791092,1492035169.3878769875, -0.0929,  0.0260,  0.0756, -0.1537, -0.0085, -0.3508
1492035169.3882479668,1492035169.3906409740, -0.0929,  0.0260,  0.0756, -0.1537, -0.0085, -0.3508
1492035169.3910200596,1492035169.3934500217, -0.0929,  0.0260,  0.0756, -0.1537, -0.0085, -0.3508
1492035169.3938260078,1492035169.3962550163, -0.1084,  0.0454,  0.0598, -0.1537, -0.0085, -0.3508
1492035169.3966329098,1492035169.3990569115, -0.1084,  0.0454,  0.0598, -0.1577, -0.0443, -0.4200
1492035169.3994340897,1492035169.4018759727, -0.1084,  0.0454,  0.0598, -0.1577, -0.0443, -0.4200
1492035169.4022529125,1492035169.4046831131, -0.1084,  0.0454,  0.0598, -0.1577, -0.0443, -0.4200
1492035169.4050610065,1492035169.4074919224, -0.1084,  0.0454,  0.0598, -0.1655, -0.0785, -0.4817
1492035169.4078691006,1492035169.4103019238, -0.1084,  0.0454,  0.0598, -0.1642, -0.0785, -0.4817
1492035169.4106709957,1492035169.4129750729, -0.1084,  0.0454,  0.0598, -0.1642, -0.0785, -0.4817
1492035169.4133429527,1492035169.4156489372, -0.1160,  0.0457,  0.0744, -0.1642, -0.0785, -0.4817
1492035169.4160180092,1492035169.4183208942, -0.1160,  0.0457,  0.0744, -0.1812, -0.1085, -0.5331
1492035169.4186899662,1492035169.4210300446, -0.1160,  0.0457,  0.0744, -0.1812, -0.1085, -0.5331
1492035169.4214029312,1492035169.4237039089, -0.1160,  0.0457,  0.0744, -0.1812, -0.1085, -0.5331
1492035169.4240739346,1492035169.4263739586, -0.1160,  0.0457,  0.0744, -0.1812, -0.1085, -0.5331
1492035169.4267430305,1492035169.4290430546, -0.1160,  0.0457,  0.0744, -0.1396, -0.1503, -0.5777
1492035169.4294109344,1492035169.4318599701, -0.1160,  0.0457,  0.0744, -0.1396, -0.1503, -0.5777
1492035169.4322359562,1492035169.4346630573, -0.1160,  0.0457,  0.0770, -0.1396, -0.1503, -0.5777
1492035169.4350409508,1492035169.4374659061, -0.1675,  0.0391,  0.0770, -0.1396, -0.1503, -0.6012
1492035169.4379560947,1492035169.4404289722, -0.1675,  0.0391,  0.0770, -0.1654, -0.1802, -0.5987
1492035169.4408049583,1492035169.4432311058, -0.1675,  0.0391,  0.0770, -0.1654, -0.1802, -0.5987
1492035169.4436089993,1492035169.4460349083, -0.1675,  0.0391,  0.0770, -0.1654, -0.1802, -0.5987
1492035169.4464108944,1492035169.4488389492, -0.1675,  0.0391,  0.0770, -0.1558, -0.2173, -0.6240
1492035169.4492158890,1492035169.4516539574, -0.1675,  0.0391,  0.0770, -0.1558, -0.2173, -0.6240
1492035169.4520299435,1492035169.4544529915, -0.1675,  0.0391,  0.0965, -0.1558, -0.2173, -0.6240
1492035169.4548280239,1492035169.4572570324, -0.1958,  0.0438,  0.0965, -0.1558, -0.2173, -0.6240
1492035169.4576320648,1492035169.4600670338, -0.1958,  0.0438,  0.0965, -0.1660, -0.2609, -0.6392
1492035169.4604361057,1492035169.4627339840, -0.1958,  0.0438,  0.0965, -0.1660, -0.2609, -0.6392
1492035169.4631030560,1492035169.4654080868, -0.1958,  0.0438,  0.0965, -0.1660, -0.2609, -0.6392
1492035169.4657790661,1492035169.4680850506, -0.1958,  0.0438,  0.0965, -0.1660, -0.2609, -0.6392
1492035169.4684519768,1492035169.4708440304, -0.1958,  0.0438,  0.0965, -0.1334, -0.2982, -0.6534
1492035169.4712200165,1492035169.4736449718, -0.1958,  0.0438,  0.0965, -0.1334, -0.2982, -0.6534
1492035169.4740200043,1492035169.4764440060, -0.2485,  0.0837,  0.0976, -0.1334, -0.2982, -0.6534
1492035169.4768209457,1492035169.4792459011, -0.2485,  0.0837,  0.0976, -0.1334, -0.3295, -0.6601
1492035169.4796209335,1492035169.4820590019, -0.2485,  0.0837,  0.0976, -0.0985, -0.3328, -0.6601
1492035169.4824349880,1492035169.4848659039, -0.2485,  0.0837,  0.0976, -0.0985, -0.3328, -0.6601
1492035169.4852418900,1492035169.4876699448, -0.2485,  0.0837,  0.0976, -0.0985, -0.3328, -0.6601
1492035169.4880459309,1492035169.4904830456, -0.2485,  0.0837,  0.0976, -0.0512, -0.3728, -0.6619
1492035169.4908599854,1492035169.4932870865, -0.2485,  0.0837,  0.0976, -0.0512, -0.3728, -0.6619
1492035169.4936630726,1492035169.4960858822, -0.2989,  0.1186,  0.0774, -0.0512, -0.3728, -0.6619
1492035169.4964640141,1492035169.4988939762, -0.2989,  0.1186,  0.0774, -0.0512, -0.3728, -0.6619
1492035169.4992721081,1492035169.5017149448, -0.2989,  0.1186,  0.0774, -0.0152, -0.3929, -0.6648
1492035169.5020918846,1492035169.5045208931, -0.2989,  0.1186,  0.0774, -0.0152, -0.3929, -0.6648
1492035169.5048980713,1492035169.5073280334, -0.2989,  0.1186,  0.0774, -0.0152, -0.3929, -0.6648
1492035169.5077040195,1492035169.5101358891, -0.2989,  0.1186,  0.0774, -0.0152, -0.3929, -0.6615
1492035169.5105059147,1492035169.5128099918, -0.2989,  0.1186,  0.0774,  0.0125, -0.3923, -0.6615
1492035169.5131781101,1492035169.5154809952, -0.3811,  0.1355, -0.0141,  0.0125, -0.3923, -0.6615
1492035169.5158500671,1492035169.5181529522, -0.3811,  0.1355, -0.0141,  0.0125, -0.3923, -0.6615
1492035169.5185220242,1492035169.5208320618, -0.3811,  0.1355, -0.0141,  0.0271, -0.3723, -0.6392
1492035169.5212030411,1492035169.5234999657, -0.3811,  0.1355, -0.0141,  0.0271, -0.3723, -0.6392
1492035169.5238699913,1492035169.5261690617, -0.3811,  0.1355, -0.0141,  0.0271, -0.3723, -0.6392
1492035169.5265390873,1492035169.5288419724, -0.3811,  0.1355, -0.0141,  0.0271, -0.3723, -0.6392
1492035169.5292100906,1492035169.5316660404, -0.3811,  0.1355, -0.0141,  0.0469, -0.3318, -0.5685
1492035169.5320429802,1492035169.5344719887, -0.4230,  0.3149, -0.0938,  0.0469, -0.3318, -0.5685
1492035169.5348498821,1492035169.5372779369, -0.4230,  0.3149, -0.0938,  0.0469, -0.3318, -0.5685
1492035169.5376539230,1492035169.5400938988, -0.4230,  0.3149, -0.0938,  0.0469, -0.3318, -0.5685
1492035169.5404698849,1492035169.5428960323, -0.4230,  0.3149, -0.0938,  0.0636, -0.2736, -0.4855
1492035169.5432751179,1492035169.5456979275, -0.4230,  0.3149, -0.0938,  0.0636, -0.2736, -0.4855
1492035169.5460751057,1492035169.5485000610, -0.4230,  0.3149, -0.0938,  0.0636, -0.2736, -0.4855
1492035169.5488770008,1492035169.5513141155, -0.4230,  0.3149, -0.0938,  0.0636, -0.1955, -0.4259
1492035169.5516901016,1492035169.5541169643, -0.3683,  0.4170, -0.1441,  0.0479, -0.1973, -0.4259
1492035169.5546069145,1492035169.5570399761, -0.3684,  0.4170, -0.1441,  0.0479, -0.1973, -0.4259
1492035169.5574150085,1492035169.5598471165, -0.3684,  0.4170, -0.1441,  0.0479, -0.1973, -0.4259
1492035169.5602331161,1492035169.5625369549, -0.3684,  0.4170, -0.1441,  0.0842, -0.1344, -0.3454
1492035169.5629069805,1492035169.5652089119, -0.3684,  0.4170, -0.1441,  0.0842, -0.1344, -0.3454
1492035169.5655779839,1492035169.5678830147, -0.3684,  0.4170, -0.1441,  0.0842, -0.1344, -0.3454
1492035169.5682520866,1492035169.5706369877, -0.3684,  0.4170, -0.1441,  0.0842, -0.1344, -0.3454
1492035169.5710139275,1492035169.5734400749, -0.3684,  0.5029, -0.1207,  0.1020, -0.0966, -0.2458
1492035169.5738179684,1492035169.5762460232, -0.2387,  0.5007, -0.1207,  0.1020, -0.0966, -0.2458
1492035169.5766260624,1492035169.5790500641, -0.2387,  0.5007, -0.1207,  0.1020, -0.0966, -0.2458
1492035169.5794279575,1492035169.5818641186, -0.2387,  0.5007, -0.1207,  0.1020, -0.0966, -0.1631
1492035169.5822420120,1492035169.5846660137, -0.2387,  0.5007, -0.1207,  0.0992, -0.0702, -0.1631
1492035169.5850450993,1492035169.5874710083, -0.2387,  0.5007, -0.1207,  0.0992, -0.0702, -0.1631
1492035169.5878469944,1492035169.5902819633, -0.2387,  0.5007, -0.1207,  0.0992, -0.0702, -0.1631
1492035169.5906589031,1492035169.5930879116, -0.2387,  0.5007, -0.1819,  0.1388, -0.0527, -0.1015
1492035169.5934669971,1492035169.5958919525, -0.1637,  0.4472, -0.1819,  0.1388, -0.0527, -0.1015
1492035169.5962700844,1492035169.5986909866, -0.1637,  0.4472, -0.1819,  0.1388, -0.0527, -0.1015
1492035169.5990679264,1492035169.6014339924, -0.1637,  0.4472, -0.1819,  0.1388, -0.0527, -0.1015
1492035169.6018049717,1492035169.6041100025, -0.1637,  0.4472, -0.1819,  0.1714, -0.0179, -0.0140
1492035169.6044778824,1492035169.6067850590, -0.1637,  0.4472, -0.1819,  0.1714, -0.0179, -0.0140
1492035169.6071560383,1492035169.6094601154, -0.1637,  0.4472, -0.1819,  0.1714, -0.0179, -0.0140
1492035169.6098279953,1492035169.6122870445, -0.1637,  0.4472, -0.1819,  0.1714, -0.0179, -0.0140
1492035169.6126630306,1492035169.6150870323, -0.1620,  0.2968, -0.2353,  0.1847,  0.0276,  0.0564
1492035169.6154630184,1492035169.6178860664, -0.1620,  0.2968, -0.2353,  0.1847,  0.0276,  0.0564
1492035169.6182599068,1492035169.6206960678, -0.1620,  0.2968, -0.2353,  0.1847,  0.0276,  0.0564
1492035169.6210711002,1492035169.6234979630, -0.1620,  0.2968, -0.2353,  0.1847,  0.0515,  0.0936
1492035169.6238749027,1492035169.6263051033, -0.1620,  0.2968, -0.2353,  0.1663,  0.0515,  0.0936
1492035169.6266798973,1492035169.6291089058, -0.1620,  0.2968, -0.2353,  0.1663,  0.0515,  0.0936
1492035169.6294848919,1492035169.6319310665, -0.1620,  0.2968, -0.2353,  0.1663,  0.0515,  0.0936
1492035169.6323070526,1492035169.6347320080, -0.1406,  0.1267, -0.3252,  0.0915,  0.1202,  0.1225
1492035169.6351079941,1492035169.6375329494, -0.1406,  0.1267, -0.3252,  0.0915,  0.1202,  0.1225
1492035169.6379110813,1492035169.6403510571, -0.1406,  0.1267, -0.3252,  0.0915,  0.1202,  0.1225
1492035169.6407279968,1492035169.6431560516, -0.1406,  0.1267, -0.3252,  0.0915,  0.1202,  0.1225
1492035169.6435329914,1492035169.6459650993, -0.1406,  0.1267, -0.3252, -0.0547,  0.1931,  0.2378
1492035169.6463410854,1492035169.6487739086, -0.1406,  0.1267, -0.3252, -0.0547,  0.1931,  0.2378
1492035169.6491498947,1492035169.6515500546, -0.1406,  0.1267, -0.3252, -0.0547,  0.1931,  0.2378
1492035169.6519179344,1492035169.6542229652, -0.2008,  0.1144, -0.0165, -0.0547,  0.0647,  0.2914
1492035169.6545939445,1492035169.6568939686, -0.2008,  0.1144, -0.0165, -0.1907,  0.0647,  0.2914
1492035169.6572620869,1492035169.6595659256, -0.2008,  0.1144, -0.0165, -0.1907,  0.0647,  0.2914
1492035169.6599340439,1492035169.6622359753, -0.2008,  0.1144, -0.0165, -0.1907,  0.0647,  0.2914
1492035169.6626069546,1492035169.6649069786, -0.2008,  0.1144, -0.0165, -0.2982, -0.1339,  0.4066
1492035169.6652770042,1492035169.6675810814, -0.2008,  0.1144, -0.0165, -0.2982, -0.1339,  0.4066
1492035169.6679499149,1492035169.6702709198, -0.2008,  0.1144, -0.0165, -0.2982, -0.1339,  0.4066
1492035169.6707549095,1492035169.6731860638, -0.8629,  0.0761,  0.3200, -0.2982, -0.1339,  0.4066
1492035169.6735630035,1492035169.6759889126, -0.8629,  0.0761,  0.3200, -0.2488, -0.1744,  0.3593
1492035169.6763660908,1492035169.6787919998, -0.8629,  0.0761,  0.3200, -0.2488, -0.1744,  0.3593
1492035169.6791670322,1492035169.6816289425, -0.8629,  0.0761,  0.3200, -0.2488, -0.1744,  0.3593
1492035169.6820049286,1492035169.6844329834, -0.8629,  0.0761,  0.3200, -0.2488, -0.1744,  0.2812
1492035169.6848099232,1492035169.6872339249, -0.8629,  0.0761,  0.3200,  0.0192,  0.2004,  0.2789
1492035169.6876099110,1492035169.6900470257, -0.8629,  0.0761,  0.3200,  0.0192,  0.2004,  0.2789
1492035169.6904239655,1492035169.6928529739, -0.0504,  0.0360,  0.1506,  0.0192,  0.2004,  0.2789
1492035169.6932280064,1492035169.6956560612, -0.0527,  0.0360,  0.1506, -0.0901,  0.1208,  0.5654
1492035169.6960349083,1492035169.6984610558, -0.0527,  0.0360,  0.1506, -0.0934,  0.1208,  0.5654
1492035169.6988370419,1492035169.7012720108, -0.0527,  0.0360,  0.1506, -0.0934,  0.1208,  0.5654
