timestamp_before,timestamp_after,accel_x,accel_y,accel_z,gyro_x,gyro_y,gryo_z
1492035349.5890829563,1492035349.5924549103, -0.1852,  0.0117,  0.0221,  0.0063,  0.0037, -0.0205
1492035349.5929110050,1492035349.5952129364, -0.1852,  0.0103,  0.0231,  0.0063,  0.0037, -0.0205
1492035349.5955839157,1492035349.5978798866, -0.1843,  0.0103,  0.0231,  0.0063,  0.0037, -0.0205
1492035349.5982499123,1492035349.6008069515, -0.1843,  0.0103,  0.0231,  0.0058,  0.0034, -0.0209
1492035349.6011769772,1492035349.6034729481, -0.1843,  0.0103,  0.0231,  0.0058,  0.0034, -0.0209
1492035349.6038429737,1492035349.6061389446, -0.1843,  0.0103,  0.0231,  0.0058,  0.0034, -0.0209
1492035349.6065099239,1492035349.6088058949, -0.1843,  0.0103,  0.0231,  0.0058,  0.0034, -0.0209
1492035349.6091749668,1492035349.6115260124, -0.1843,  0.0103,  0.0231,  0.0054,  0.0043, -0.0207
1492035349.6118950844,1492035349.6141889095, -0.1843,  0.0103,  0.0231,  0.0054,  0.0043, -0.0207
1492035349.6145589352,1492035349.6168599129, -0.1851,  0.0094,  0.0261,  0.0054,  0.0043, -0.0207
1492035349.6172289848,1492035349.6195309162, -0.1851,  0.0094,  0.0261,  0.0054,  0.0043, -0.0198
1492035349.6199009418,1492035349.6222081184, -0.1851,  0.0094,  0.0261,  0.0042,  0.0060, -0.0198
1492035349.6225810051,1492035349.6248729229, -0.1851,  0.0094,  0.0261,  0.0042,  0.0060, -0.0198
1492035349.6252429485,1492035349.6275370121, -0.1851,  0.0094,  0.0261,  0.0042,  0.0060, -0.0198
1492035349.6279070377,1492035349.6302449703, -0.1851,  0.0094,  0.0261,  0.0042,  0.0060, -0.0198
1492035349.6306140423,1492035349.6329140663, -0.1851,  0.0094,  0.0261,  0.0062,  0.0071, -0.0198
1492035349.6332819462,1492035349.6355741024, -0.1836,  0.0148,  0.0261,  0.0062,  0.0071, -0.0198
1492035349.6359450817,1492035349.6382389069, -0.1836,  0.0148,  0.0261,  0.0062,  0.0071, -0.0198
1492035349.6386110783,1492035349.6411590576, -0.1836,  0.0148,  0.0261,  0.0071,  0.0070, -0.0215
1492035349.6415441036,1492035349.6439590454, -0.1836,  0.0148,  0.0261,  0.0071,  0.0070, -0.0215
1492035349.6443378925,1492035349.6467490196, -0.1836,  0.0148,  0.0261,  0.0071,  0.0070, -0.0215
1492035349.6471281052,1492035349.6495349407, -0.1836,  0.0148,  0.0261,  0.0071,  0.0070, -0.0215
1492035349.6499099731,1492035349.6523299217, -0.1836,  0.0148,  0.0261,  0.0050,  0.0072, -0.0236
1492035349.6527090073,1492035349.6551210880, -0.1836,  0.0091,  0.0283,  0.0050,  0.0072, -0.0236
1492035349.6554999352,1492035349.6579070091, -0.1858,  0.0091,  0.0283,  0.0050,  0.0072, -0.0236
1492035349.6582860947,1492035349.6607100964, -0.1858,  0.0091,  0.0283,  0.0050,  0.0072, -0.0292
1492035349.6610870361,1492035349.6635010242, -0.1858,  0.0091,  0.0283, -0.0012,  0.0058, -0.0292
1492035349.6638789177,1492035349.6663179398, -0.1858,  0.0091,  0.0283, -0.0012,  0.0058, -0.0292
1492035349.6667010784,1492035349.6691300869, -0.1858,  0.0091,  0.0283, -0.0012,  0.0058, -0.0292
1492035349.6695098877,1492035349.6718499660, -0.1858,  0.0091,  0.0283, -0.0055,  0.0042, -0.0306
1492035349.6722209454,1492035349.6745190620, -0.1858,  0.0080,  0.0206, -0.0055,  0.0042, -0.0306
1492035349.6748890877,1492035349.6771969795, -0.1836,  0.0080,  0.0206, -0.0055,  0.0042, -0.0306
1492035349.6775670052,1492035349.6798970699, -0.1836,  0.0080,  0.0206, -0.0055,  0.0042, -0.0306
1492035349.6802699566,1492035349.6826889515, -0.1836,  0.0080,  0.0206, -0.0060,  0.0025, -0.0312
1492035349.6830689907,1492035349.6854960918, -0.1836,  0.0080,  0.0206, -0.0060,  0.0025, -0.0312
1492035349.6858749390,1492035349.6882998943, -0.1836,  0.0080,  0.0206, -0.0060,  0.0025, -0.0312
1492035349.6886780262,1492035349.6911189556, -0.1836,  0.0080,  0.0206, -0.0060,  0.0025, -0.0312
1492035349.6914970875,1492035349.6939249039, -0.1836,  0.0080,  0.0192, -0.0068,  0.0018, -0.0318
1492035349.6943030357,1492035349.6967270374, -0.1862,  0.0105,  0.0192, -0.0068,  0.0018, -0.0318
1492035349.6971058846,1492035349.6995339394, -0.1862,  0.0105,  0.0192, -0.0068,  0.0018, -0.0318
1492035349.6999139786,1492035349.7022290230, -0.1862,  0.0105,  0.0192, -0.0068,  0.0018, -0.0325
1492035349.7026009560,1492035349.7048981190, -0.1862,  0.0105,  0.0192, -0.0015,  0.0040, -0.0325
1492035349.7054131031,1492035349.7077178955, -0.1862,  0.0105,  0.0192, -0.0015,  0.0040, -0.0325
1492035349.7080879211,1492035349.7105278969, -0.1862,  0.0105,  0.0192, -0.0015,  0.0040, -0.0325
1492035349.7108979225,1492035349.7132000923, -0.1862,  0.0105,  0.0192, -0.0011,  0.0079, -0.0279
1492035349.7135689259,1492035349.7158710957, -0.1806,  0.0112,  0.0283, -0.0011,  0.0079, -0.0279
1492035349.7162420750,1492035349.7185380459, -0.1806,  0.0112,  0.0283, -0.0011,  0.0079, -0.0279
1492035349.7189090252,1492035349.7213859558, -0.1806,  0.0112,  0.0283, -0.0011,  0.0079, -0.0279
1492035349.7217659950,1492035349.7241899967, -0.1806,  0.0112,  0.0283, -0.0046,  0.0060, -0.0266
1492035349.7245659828,1492035349.7269918919, -0.1806,  0.0112,  0.0283, -0.0046,  0.0060, -0.0266
1492035349.7273700237,1492035349.7297980785, -0.1806,  0.0112,  0.0283, -0.0046,  0.0060, -0.0266
1492035349.7301859856,1492035349.7326130867, -0.1806,  0.0112,  0.0283, -0.0046,  0.0060, -0.0266
1492035349.7329890728,1492035349.7354168892, -0.1855,  0.0158,  0.0200,  0.0004,  0.0069, -0.0278
1492035349.7357950211,1492035349.7382240295, -0.1855,  0.0158,  0.0200,  0.0004,  0.0069, -0.0278
1492035349.7386019230,1492035349.7410430908, -0.1855,  0.0158,  0.0200,  0.0004,  0.0069, -0.0278
1492035349.7414209843,1492035349.7438480854, -0.1855,  0.0158,  0.0200,  0.0013,  0.0091, -0.0244
1492035349.7442250252,1492035349.7466490269, -0.1855,  0.0158,  0.0200,  0.0013,  0.0091, -0.0244
1492035349.7470290661,1492035349.7494559288, -0.1855,  0.0158,  0.0200,  0.0013,  0.0091, -0.0244
1492035349.7498350143,1492035349.7522768974, -0.1855,  0.0158,  0.0200,  0.0013,  0.0091, -0.0244
1492035349.7526540756,1492035349.7550799847, -0.1823,  0.0022,  0.0283,  0.0019,  0.0070, -0.0225
1492035349.7554590702,1492035349.7578790188, -0.1823,  0.0022,  0.0283,  0.0019,  0.0070, -0.0225
1492035349.7582581043,1492035349.7606689930, -0.1823,  0.0022,  0.0283,  0.0019,  0.0070, -0.0225
1492035349.7610390186,1492035349.7634990215, -0.1823,  0.0022,  0.0283,  0.0019,  0.0070, -0.0225
1492035349.7638700008,1492035349.7661681175, -0.1823,  0.0022,  0.0283,  0.0041,  0.0040, -0.0210
1492035349.7665369511,1492035349.7688388824, -0.1823,  0.0022,  0.0283,  0.0041,  0.0040, -0.0210
1492035349.7692089081,1492035349.7717831135, -0.1823,  0.0022,  0.0283,  0.0041,  0.0040, -0.0210
1492035349.7721579075,1492035349.7745521069, -0.1831,  0.0090,  0.0247,  0.0041,  0.0019, -0.0198
1492035349.7749300003,1492035349.7774379253, -0.1831,  0.0090,  0.0247,  0.0050,  0.0019, -0.0198
1492035349.7778160572,1492035349.7810249329, -0.1831,  0.0090,  0.0247,  0.0050,  0.0019, -0.0198
1492035349.7813990116,1492035349.7836999893, -0.1831,  0.0090,  0.0247,  0.0050,  0.0019, -0.0198
1492035349.7840731144,1492035349.7863719463, -0.1831,  0.0090,  0.0247,  0.0033,  0.0021, -0.0185
1492035349.7867429256,1492035349.7890439034, -0.1831,  0.0090,  0.0247,  0.0033,  0.0021, -0.0185
1492035349.7894139290,1492035349.7918601036, -0.1831,  0.0090,  0.0247,  0.0033,  0.0021, -0.0185
1492035349.7922389507,1492035349.7946639061, -0.1855,  0.0155,  0.0180,  0.0033,  0.0021, -0.0186
1492035349.7950410843,1492035349.7974660397, -0.1855,  0.0155,  0.0180,  0.0039,  0.0020, -0.0186
1492035349.7978439331,1492035349.8002688885, -0.1855,  0.0155,  0.0180,  0.0039,  0.0020, -0.0186
1492035349.8006379604,1492035349.8029398918, -0.1855,  0.0155,  0.0180,  0.0039,  0.0020, -0.0186
1492035349.8033080101,1492035349.8056099415, -0.1855,  0.0155,  0.0180,  0.0069,  0.0028, -0.0193
1492035349.8059799671,1492035349.8082809448, -0.1855,  0.0155,  0.0180,  0.0069,  0.0028, -0.0193
1492035349.8086519241,1492035349.8110039234, -0.1855,  0.0155,  0.0180,  0.0069,  0.0028, -0.0193
1492035349.8113760948,1492035349.8136730194, -0.1817,  0.0057,  0.0249,  0.0069,  0.0028, -0.0193
1492035349.8140408993,1492035349.8163390160, -0.1817,  0.0057,  0.0249,  0.0090,  0.0027, -0.0205
1492035349.8167099953,1492035349.8190109730, -0.1817,  0.0057,  0.0249,  0.0090,  0.0027, -0.0205
1492035349.8195009232,1492035349.8218090534, -0.1817,  0.0057,  0.0249,  0.0090,  0.0027, -0.0205
1492035349.8221809864,1492035349.8244791031, -0.1817,  0.0057,  0.0249,  0.0090,  0.0027, -0.0205
1492035349.8248500824,1492035349.8271450996, -0.1817,  0.0057,  0.0249,  0.0081,  0.0015, -0.0205
1492035349.8275170326,1492035349.8298180103, -0.1817,  0.0057,  0.0249,  0.0081,  0.0015, -0.0205
1492035349.8301959038,1492035349.8324949741, -0.1817,  0.0057,  0.0249,  0.0081,  0.0015, -0.0205
1492035349.8328659534,1492035349.8351700306, -0.1843,  0.0042,  0.0264,  0.0081,  0.0015, -0.0205
1492035349.8355410099,1492035349.8378388882, -0.1843,  0.0042,  0.0264,  0.0060, -0.0003, -0.0171
1492035349.8382089138,1492035349.8406689167, -0.1843,  0.0042,  0.0264,  0.0060, -0.0003, -0.0171
1492035349.8410480022,1492035349.8434710503, -0.1843,  0.0042,  0.0264,  0.0060, -0.0003, -0.0171
1492035349.8438489437,1492035349.8462738991, -0.1843,  0.0042,  0.0264,  0.0060, -0.0003, -0.0155
1492035349.8466529846,1492035349.8490750790, -0.1843,  0.0042,  0.0264,  0.0060, -0.0002, -0.0155
1492035349.8494551182,1492035349.8518009186, -0.1843,  0.0042,  0.0264,  0.0060, -0.0002, -0.0155
1492035349.8521709442,1492035349.8544709682, -0.1860,  0.0045,  0.0256,  0.0060, -0.0002, -0.0155
1492035349.8548400402,1492035349.8571400642, -0.1860,  0.0045,  0.0256,  0.0032, -0.0011, -0.0141
1492035349.8575110435,1492035349.8598101139, -0.1860,  0.0045,  0.0256,  0.0032, -0.0011, -0.0141
1492035349.8601870537,1492035349.8626079559, -0.1860,  0.0045,  0.0256,  0.0032, -0.0011, -0.0141
1492035349.8629870415,1492035349.8654110432, -0.1860,  0.0045,  0.0256,  0.0032, -0.0011, -0.0141
1492035349.8657889366,1492035349.8682150841, -0.1860,  0.0045,  0.0256,  0.0038, -0.0017, -0.0132
1492035349.8685929775,1492035349.8710260391, -0.1860,  0.0045,  0.0256,  0.0038, -0.0017, -0.0132
1492035349.8714029789,1492035349.8738260269, -0.1857,  0.0111,  0.0194,  0.0038, -0.0017, -0.0132
1492035349.8742039204,1492035349.8766291142, -0.1857,  0.0111,  0.0194,  0.0038, -0.0017, -0.0132
1492035349.8770070076,1492035349.8794341087, -0.1857,  0.0111,  0.0194,  0.0042, -0.0006, -0.0119
1492035349.8798110485,1492035349.8822500706, -0.1857,  0.0111,  0.0194,  0.0042, -0.0006, -0.0119
1492035349.8826270103,1492035349.8850510120, -0.1857,  0.0111,  0.0194,  0.0042, -0.0006, -0.0119
1492035349.8854279518,1492035349.8878519535, -0.1857,  0.0111,  0.0194,  0.0042, -0.0001, -0.0131
1492035349.8882279396,1492035349.8906340599, -0.1857,  0.0111,  0.0194,  0.0058, -0.0001, -0.0131
1492035349.8910019398,1492035349.8933010101, -0.1830,  0.0066,  0.0230,  0.0058, -0.0001, -0.0131
1492035349.8936710358,1492035349.8959679604, -0.1830,  0.0066,  0.0230,  0.0058, -0.0001, -0.0131
1492035349.8963971138,1492035349.8987090588, -0.1830,  0.0066,  0.0230,  0.0061, -0.0005, -0.0116
1492035349.8990800381,1492035349.9015040398, -0.1830,  0.0066,  0.0230,  0.0061, -0.0005, -0.0116
1492035349.9018819332,1492035349.9043149948, -0.1830,  0.0066,  0.0230,  0.0061, -0.0005, -0.0116
1492035349.9046919346,1492035349.9071118832, -0.1830,  0.0066,  0.0230,  0.0061, -0.0005, -0.0116
1492035349.9074900150,1492035349.9099130630, -0.1830,  0.0066,  0.0230,  0.0034,  0.0002, -0.0109
1492035349.9103550911,1492035349.9127840996, -0.1830,  0.0130,  0.0176,  0.0034,  0.0002, -0.0109
1492035349.9131610394,1492035349.9155900478, -0.1861,  0.0130,  0.0176,  0.0034,  0.0002, -0.0109
1492035349.9159679413,1492035349.9183928967, -0.1861,  0.0130,  0.0176,  0.0034, -0.0077, -0.0090
1492035349.9187700748,1492035349.9212439060, -0.1861,  0.0130,  0.0176,  0.0011, -0.0005, -0.0090
1492035349.9216210842,1492035349.9240410328, -0.1861,  0.0130,  0.0176,  0.0011, -0.0005, -0.0090
1492035349.9244179726,1492035349.9268488884, -0.1861,  0.0130,  0.0176,  0.0011, -0.0005, -0.0090
1492035349.9272289276,1492035349.9296538830, -0.1861,  0.0130,  0.0176,  0.0000, -0.0024, -0.0077
1492035349.9300398827,1492035349.9323348999, -0.1861,  0.0037,  0.0237,  0.0000, -0.0024, -0.0077
1492035349.9327039719,1492035349.9350121021, -0.1841,  0.0037,  0.0237,  0.0000, -0.0024, -0.0077
1492035349.9354970455,1492035349.9377949238, -0.1841,  0.0037,  0.0237,  0.0000, -0.0024, -0.0077
1492035349.9381670952,1492035349.9406850338, -0.1841,  0.0037,  0.0237, -0.0023, -0.0037, -0.0065
1492035349.9410560131,1492035349.9433610439, -0.1841,  0.0037,  0.0237, -0.0023, -0.0037, -0.0065
1492035349.9437320232,1492035349.9460310936, -0.1841,  0.0037,  0.0237, -0.0023, -0.0037, -0.0065
1492035349.9463989735,1492035349.9487030506, -0.1841,  0.0037,  0.0237, -0.0023, -0.0037, -0.0065
1492035349.9490730762,1492035349.9515058994, -0.1841,  0.0037,  0.0237, -0.0049, -0.0061, -0.0049
1492035349.9518771172,1492035349.9541769028, -0.1840,  0.0061,  0.0246, -0.0049, -0.0061, -0.0049
1492035349.9545469284,1492035349.9568510056, -0.1840,  0.0061,  0.0246, -0.0049, -0.0061, -0.0049
1492035349.9572219849,1492035349.9595220089, -0.1840,  0.0061,  0.0246, -0.0049, -0.0061, -0.0033
1492035349.9598920345,1492035349.9623770714, -0.1840,  0.0061,  0.0246, -0.0075, -0.0061, -0.0033
1492035349.9627571106,1492035349.9651689529, -0.1840,  0.0061,  0.0246, -0.0075, -0.0061, -0.0033
1492035349.9655458927,1492035349.9679560661, -0.1840,  0.0061,  0.0246, -0.0075, -0.0061, -0.0033
1492035349.9683330059,1492035349.9707479477, -0.1840,  0.0061,  0.0246, -0.0065, -0.0050, -0.0037
1492035349.9711239338,1492035349.9735310078, -0.1837,  0.0160,  0.0236, -0.0065, -0.0050, -0.0037
1492035349.9739089012,1492035349.9763100147, -0.1837,  0.0160,  0.0236, -0.0065, -0.0050, -0.0037
1492035349.9766850471,1492035349.9790959358, -0.1837,  0.0160,  0.0236, -0.0065, -0.0050, -0.0037
1492035349.9794731140,1492035349.9818749428, -0.1837,  0.0160,  0.0236, -0.0061, -0.0038, -0.0046
1492035349.9822490215,1492035349.9846351147, -0.1837,  0.0160,  0.0236, -0.0061, -0.0038, -0.0046
1492035349.9850099087,1492035349.9873960018, -0.1837,  0.0160,  0.0236, -0.0061, -0.0038, -0.0046
1492035349.9877710342,1492035349.9901630878, -0.1837,  0.0160,  0.0236, -0.0061, -0.0038, -0.0048
1492035349.9905340672,1492035349.9928400517, -0.1880,  0.0172,  0.0238, -0.0065, -0.0016, -0.0048
1492035349.9932129383,1492035349.9955170155, -0.1880,  0.0172,  0.0238, -0.0065, -0.0016, -0.0048
1492035349.9958879948,1492035349.9981861115, -0.1880,  0.0172,  0.0238, -0.0065, -0.0016, -0.0048
1492035349.9985580444,1492035350.0009310246, -0.1880,  0.0172,  0.0238, -0.0065,  0.0020, -0.0070
1492035350.0013089180,1492035350.0037319660, -0.1880,  0.0172,  0.0238, -0.0050,  0.0020, -0.0070
1492035350.0041089058,1492035350.0065300465, -0.1880,  0.0172,  0.0238, -0.0050,  0.0020, -0.0070
1492035350.0069069862,1492035350.0093350410, -0.1880,  0.0172,  0.0238, -0.0050,  0.0020, -0.0070
1492035350.0097129345,1492035350.0121440887, -0.1847,  0.0095,  0.0196, -0.0003,  0.0003, -0.0080
1492035350.0125200748,1492035350.0149428844, -0.1847,  0.0095,  0.0196, -0.0003,  0.0003, -0.0080
1492035350.0153200626,1492035350.0177409649, -0.1847,  0.0095,  0.0196, -0.0003,  0.0003, -0.0080
1492035350.0181159973,1492035350.0205419064, -0.1847,  0.0095,  0.0196, -0.0003,  0.0003, -0.0080
1492035350.0209209919,1492035350.0233469009, -0.1847,  0.0095,  0.0196, -0.0014, -0.0030, -0.0064
1492035350.0237259865,1492035350.0261449814, -0.1847,  0.0095,  0.0196, -0.0014, -0.0030, -0.0064
1492035350.0265231133,1492035350.0289518833, -0.1847,  0.0095,  0.0196, -0.0014, -0.0030, -0.0064
1492035350.0293300152,1492035350.0317659378, -0.1835,  0.0123,  0.0164, -0.0014, -0.0031, -0.0056
1492035350.0321450233,1492035350.0345680714, -0.1835,  0.0123,  0.0164, -0.0074, -0.0031, -0.0056
1492035350.0349481106,1492035350.0373771191, -0.1835,  0.0123,  0.0164, -0.0074, -0.0031, -0.0056
1492035350.0377540588,1492035350.0402300358, -0.1835,  0.0123,  0.0164, -0.0074, -0.0031, -0.0056
1492035350.0406010151,1492035350.0428979397, -0.1835,  0.0123,  0.0164, -0.0081, -0.0030, -0.0083
1492035350.0432689190,1492035350.0455729961, -0.1835,  0.0123,  0.0164, -0.0081, -0.0030, -0.0083
1492035350.0459430218,1492035350.0482470989, -0.1835,  0.0123,  0.0164, -0.0081, -0.0030, -0.0083
1492035350.0486159325,1492035350.0509209633, -0.1835,  0.0123,  0.0201, -0.0081, -0.0030, -0.0083
1492035350.0513989925,1492035350.0537049770, -0.1863,  0.0105,  0.0201, -0.0072, -0.0031, -0.0074
1492035350.0540750027,1492035350.0563690662, -0.1863,  0.0105,  0.0201, -0.0072, -0.0031, -0.0074
1492035350.0567400455,1492035350.0590379238, -0.1863,  0.0105,  0.0201, -0.0072, -0.0031, -0.0074
1492035350.0594079494,1492035350.0618600845, -0.1863,  0.0105,  0.0201, -0.0072, -0.0031, -0.0074
1492035350.0622360706,1492035350.0646638870, -0.1863,  0.0105,  0.0201, -0.0071, -0.0028, -0.0077
1492035350.0650429726,1492035350.0674700737, -0.1863,  0.0105,  0.0201, -0.0071, -0.0028, -0.0077
1492035350.0678479671,1492035350.0702819824, -0.1863,  0.0105,  0.0201, -0.0071, -0.0028, -0.0077
1492035350.0706579685,1492035350.0730819702, -0.1810,  0.0046,  0.0229, -0.0071, -0.0023, -0.0074
1492035350.0734589100,1492035350.0758850574, -0.1810,  0.0046,  0.0229, -0.0076, -0.0023, -0.0074
1492035350.0762650967,1492035350.0786890984, -0.1810,  0.0046,  0.0229, -0.0076, -0.0023, -0.0074
1492035350.0790679455,1492035350.0815079212, -0.1810,  0.0046,  0.0229, -0.0076, -0.0023, -0.0074
1492035350.0818839073,1492035350.0843019485, -0.1810,  0.0046,  0.0229, -0.0110, -0.0027, -0.0047
1492035350.0846800804,1492035350.0870969296, -0.1810,  0.0046,  0.0229, -0.0110, -0.0027, -0.0047
1492035350.0874729156,1492035350.0899009705, -0.1810,  0.0046,  0.0229, -0.0110, -0.0027, -0.0047
1492035350.0903151035,1492035350.0926129818, -0.1820,  0.0082,  0.0275, -0.0110, -0.0027, -0.0047
1492035350.0929830074,1492035350.0952799320, -0.1820,  0.0082,  0.0275, -0.0132, -0.0015, -0.0039
1492035350.0956490040,1492035350.0979480743, -0.1820,  0.0082,  0.0275, -0.0132, -0.0015, -0.0039
1492035350.0983209610,1492035350.1006889343, -0.1820,  0.0082,  0.0275, -0.0132, -0.0015, -0.0039
1492035350.1010661125,1492035350.1034998894, -0.1820,  0.0082,  0.0275, -0.0132, -0.0015, -0.0039
1492035350.1038780212,1492035350.1063010693, -0.1820,  0.0082,  0.0275, -0.0108, -0.0008, -0.0039
1492035350.1066789627,1492035350.1091010571, -0.1820,  0.0082,  0.0275, -0.0108, -0.0008, -0.0039
1492035350.1094820499,1492035350.1119201183, -0.1831,  0.0091,  0.0316, -0.0108, -0.0008, -0.0039
1492035350.1122970581,1492035350.1147170067, -0.1831,  0.0091,  0.0316, -0.0085,  0.0001, -0.0050
1492035350.1150939465,1492035350.1175200939, -0.1831,  0.0091,  0.0316, -0.0085,  0.0001, -0.0050
1492035350.1178989410,1492035350.1203360558, -0.1831,  0.0091,  0.0316, -0.0085,  0.0001, -0.0050
1492035350.1207129955,1492035350.1231379509, -0.1831,  0.0091,  0.0316, -0.0085,  0.0001, -0.0050
1492035350.1235160828,1492035350.1259429455, -0.1831,  0.0091,  0.0316, -0.0096,  0.0025, -0.0057
1492035350.1263220310,1492035350.1287450790, -0.1831,  0.0091,  0.0316, -0.0096,  0.0025, -0.0057
1492035350.1291239262,1492035350.1315560341, -0.1807,  0.0144,  0.0305, -0.0096,  0.0025, -0.0057
1492035350.1319339275,1492035350.1343600750, -0.1807,  0.0144,  0.0305, -0.0096,  0.0025, -0.0060
1492035350.1347389221,1492035350.1371629238, -0.1807,  0.0144,  0.0305, -0.0089,  0.0045, -0.0060
1492035350.1375401020,1492035350.1399629116, -0.1807,  0.0144,  0.0305, -0.0089,  0.0045, -0.0060
1492035350.1403849125,1492035350.1426920891, -0.1807,  0.0144,  0.0305, -0.0089,  0.0045, -0.0060
1492035350.1430630684,1492035350.1453630924, -0.1807,  0.0144,  0.0305, -0.0050,  0.0062, -0.0063
1492035350.1457331181,1492035350.1480379105, -0.1807,  0.0144,  0.0305, -0.0050,  0.0062, -0.0063
1492035350.1484088898,1492035350.1507530212, -0.1809,  0.0076,  0.0267, -0.0050,  0.0062, -0.0063
1492035350.1511321068,1492035350.1535549164, -0.1809,  0.0076,  0.0267, -0.0050,  0.0062, -0.0063
1492035350.1539349556,1492035350.1563611031, -0.1809,  0.0076,  0.0267, -0.0005,  0.0056, -0.0069
1492035350.1567389965,1492035350.1591598988, -0.1809,  0.0076,  0.0267, -0.0005,  0.0056, -0.0069
1492035350.1595380306,1492035350.1619699001, -0.1809,  0.0076,  0.0267, -0.0005,  0.0056, -0.0069
1492035350.1623489857,1492035350.1647760868, -0.1809,  0.0076,  0.0267, -0.0005,  0.0056, -0.0069
1492035350.1651530266,1492035350.1675739288, -0.1809,  0.0076,  0.0267, -0.0014,  0.0054, -0.0063
1492035350.1680600643,1492035350.1705040932, -0.1815,  0.0106,  0.0301, -0.0014,  0.0054, -0.0063
1492035350.1708819866,1492035350.1733050346, -0.1815,  0.0106,  0.0301, -0.0014,  0.0054, -0.0063
1492035350.1736829281,1492035350.1761069298, -0.1815,  0.0106,  0.0301, -0.0024,  0.0044, -0.0057
1492035350.1764850616,1492035350.1789140701, -0.1815,  0.0106,  0.0301, -0.0024,  0.0044, -0.0057
1492035350.1792910099,1492035350.1817290783, -0.1815,  0.0106,  0.0301, -0.0024,  0.0044, -0.0057
1492035350.1821069717,1492035350.1845300198, -0.1815,  0.0106,  0.0301, -0.0024,  0.0044, -0.0057
1492035350.1849079132,1492035350.1873419285, -0.1815,  0.0106,  0.0301, -0.0023,  0.0046, -0.0053
1492035350.1877200603,1492035350.1901540756, -0.1815,  0.0069,  0.0290, -0.0023,  0.0046, -0.0053
1492035350.1905260086,1492035350.1928300858, -0.1829,  0.0069,  0.0290, -0.0023,  0.0046, -0.0053
1492035350.1932020187,1492035350.1954970360, -0.1829,  0.0069,  0.0290, -0.0023,  0.0046, -0.0053
1492035350.1958689690,1492035350.1981639862, -0.1829,  0.0069,  0.0290, -0.0027,  0.0046, -0.0037
1492035350.1985349655,1492035350.2009561062, -0.1829,  0.0069,  0.0290, -0.0027,  0.0046, -0.0037
1492035350.2013270855,1492035350.2036221027, -0.1829,  0.0069,  0.0290, -0.0027,  0.0046, -0.0037
1492035350.2039930820,1492035350.2062849998, -0.1829,  0.0069,  0.0290, -0.0027,  0.0046, -0.0017
1492035350.2066550255,1492035350.2089550495, -0.1829,  0.0069,  0.0290, -0.0032,  0.0057, -0.0017
1492035350.2093260288,1492035350.2117340565, -0.1844,  0.0096,  0.0306, -0.0032,  0.0057, -0.0017
1492035350.2121129036,1492035350.2145450115, -0.1844,  0.0096,  0.0306, -0.0032,  0.0057, -0.0017
1492035350.2149209976,1492035350.2173469067, -0.1844,  0.0096,  0.0306, -0.0031,  0.0083, -0.0010
1492035350.2177259922,1492035350.2201550007, -0.1844,  0.0096,  0.0306, -0.0031,  0.0083, -0.0010
1492035350.2205328941,1492035350.2229650021, -0.1844,  0.0096,  0.0306, -0.0031,  0.0083, -0.0010
1492035350.2233428955,1492035350.2257649899, -0.1844,  0.0096,  0.0306, -0.0031,  0.0083, -0.0010
1492035350.2261428833,1492035350.2285649776, -0.1844,  0.0096,  0.0306, -0.0034,  0.0099,  0.0007
1492035350.2289440632,1492035350.2313759327, -0.1855,  0.0088,  0.0304, -0.0034,  0.0099,  0.0007
1492035350.2317519188,1492035350.2341749668, -0.1855,  0.0088,  0.0304, -0.0034,  0.0099,  0.0007
1492035350.2345509529,1492035350.2369790077, -0.1855,  0.0088,  0.0304, -0.0034,  0.0099,  0.0024
1492035350.2373559475,1492035350.2397780418, -0.1855,  0.0088,  0.0304, -0.0037,  0.0110,  0.0024
1492035350.2401649952,1492035350.2425889969, -0.1855,  0.0088,  0.0304, -0.0037,  0.0110,  0.0024
1492035350.2429659367,1492035350.2453949451, -0.1855,  0.0088,  0.0304, -0.0037,  0.0110,  0.0024
1492035350.2457709312,1492035350.2482008934, -0.1855,  0.0088,  0.0304, -0.0059,  0.0124,  0.0046
1492035350.2485790253,1492035350.2509949207, -0.1880,  0.0115,  0.0298, -0.0059,  0.0124,  0.0046
1492035350.2513659000,1492035350.2536649704, -0.1880,  0.0115,  0.0298, -0.0059,  0.0124,  0.0046
1492035350.2540330887,1492035350.2563340664, -0.1880,  0.0115,  0.0298, -0.0059,  0.0124,  0.0046
1492035350.2567019463,1492035350.2590050697, -0.1880,  0.0115,  0.0298, -0.0064,  0.0150,  0.0071
1492035350.2593750954,1492035350.2617700100, -0.1880,  0.0115,  0.0298, -0.0064,  0.0150,  0.0071
1492035350.2621490955,1492035350.2645719051, -0.1880,  0.0115,  0.0298, -0.0064,  0.0150,  0.0071
1492035350.2649478912,1492035350.2673759460, -0.1880,  0.0115,  0.0298, -0.0064,  0.0150,  0.0071
1492035350.2677509785,1492035350.2702159882, -0.1880,  0.0065,  0.0337, -0.0054,  0.0167,  0.0100
1492035350.2705969810,1492035350.2730178833, -0.1880,  0.0065,  0.0337, -0.0054,  0.0167,  0.0100
1492035350.2733960152,1492035350.2758259773, -0.1880,  0.0065,  0.0337, -0.0054,  0.0167,  0.0100
1492035350.2762029171,1492035350.2786231041, -0.1880,  0.0065,  0.0337, -0.0054,  0.0200,  0.0135
1492035350.2790000439,1492035350.2814359665, -0.1880,  0.0065,  0.0337, -0.0032,  0.0200,  0.0135
1492035350.2819139957,1492035350.2843370438, -0.1880,  0.0065,  0.0337, -0.0032,  0.0200,  0.0135
1492035350.2847139835,1492035350.2871329784, -0.1880,  0.0065,  0.0337, -0.0032,  0.0200,  0.0135
1492035350.2875111103,1492035350.2899389267, -0.1865,  0.0059,  0.0356, -0.0033,  0.0248,  0.0180
1492035350.2903630733,1492035350.2927939892, -0.1865,  0.0059,  0.0356, -0.0033,  0.0248,  0.0180
1492035350.2931709290,1492035350.2955970764, -0.1865,  0.0059,  0.0356, -0.0033,  0.0248,  0.0180
1492035350.2959749699,1492035350.2984020710, -0.1865,  0.0059,  0.0356, -0.0033,  0.0248,  0.0258
1492035350.2987790108,1492035350.3011999130, -0.1865,  0.0059,  0.0356, -0.0019,  0.0294,  0.0249
1492035350.3015720844,1492035350.3038749695, -0.1865,  0.0059,  0.0356, -0.0019,  0.0294,  0.0249
1492035350.3042449951,1492035350.3065400124, -0.1865,  0.0059,  0.0356, -0.0019,  0.0294,  0.0249
1492035350.3069090843,1492035350.3092050552, -0.1950,  0.0147,  0.0247, -0.0019,  0.0372,  0.0319
1492035350.3095750809,1492035350.3119161129, -0.1950,  0.0147,  0.0247,  0.0024,  0.0378,  0.0319
1492035350.3122849464,1492035350.3145809174, -0.1950,  0.0147,  0.0247,  0.0024,  0.0378,  0.0319
1492035350.3149509430,1492035350.3172399998, -0.1950,  0.0147,  0.0247,  0.0024,  0.0378,  0.0319
1492035350.3176081181,1492035350.3199100494, -0.1950,  0.0147,  0.0247,  0.0024,  0.0493,  0.0419
1492035350.3203480244,1492035350.3227701187, -0.1950,  0.0147,  0.0247,  0.0069,  0.0493,  0.0419
1492035350.3231470585,1492035350.3255760670, -0.1950,  0.0147,  0.0247,  0.0069,  0.0493,  0.0419
1492035350.3259530067,1492035350.3283679485, -0.1950, -0.0009,  0.0268,  0.0069,  0.0493,  0.0419
1492035350.3287448883,1492035350.3312261105, -0.1983, -0.0020,  0.0268,  0.0149,  0.0628,  0.0529
1492035350.3316030502,1492035350.3340320587, -0.1983, -0.0020,  0.0268,  0.0149,  0.0628,  0.0529
1492035350.3344070911,1492035350.3368289471, -0.1983, -0.0020,  0.0268,  0.0149,  0.0628,  0.0529
1492035350.3372058868,1492035350.3396289349, -0.1983, -0.0020,  0.0268,  0.0149,  0.0628,  0.0685
1492035350.3400149345,1492035350.3424429893, -0.1983, -0.0020,  0.0268,  0.0252,  0.0752,  0.0694
1492035350.3428189754,1492035350.3452410698, -0.1983, -0.0020,  0.0268,  0.0252,  0.0752,  0.0694
1492035350.3456180096,1492035350.3480401039, -0.1983, -0.0020,  0.0356,  0.0252,  0.0752,  0.0694
1492035350.3484160900,1492035350.3508119583, -0.2013, -0.0098,  0.0356,  0.0331,  0.0860,  0.0942
1492035350.3511838913,1492035350.3534810543, -0.2013, -0.0098,  0.0356,  0.0350,  0.0860,  0.0942
1492035350.3538498878,1492035350.3561580181, -0.2013, -0.0098,  0.0356,  0.0350,  0.0860,  0.0942
1492035350.3565280437,1492035350.3588299751, -0.2013, -0.0098,  0.0356,  0.0350,  0.0860,  0.0942
1492035350.3592000008,1492035350.3616330624, -0.2013, -0.0098,  0.0356,  0.0461,  0.0949,  0.1294
1492035350.3620100021,1492035350.3644459248, -0.2013, -0.0098,  0.0356,  0.0461,  0.0949,  0.1294
1492035350.3648240566,1492035350.3672440052, -0.2013, -0.0098,  0.0356,  0.0461,  0.0949,  0.1294
1492035350.3676209450,1492035350.3700590134, -0.2014, -0.0330,  0.0574,  0.0461,  0.0949,  0.1294
1492035350.3704369068,1492035350.3728559017, -0.2014, -0.0330,  0.0574,  0.0586,  0.1046,  0.1653
1492035350.3732318878,1492035350.3756570816, -0.2014, -0.0330,  0.0574,  0.0586,  0.1046,  0.1653
1492035350.3760330677,1492035350.3784608841, -0.2014, -0.0330,  0.0574,  0.0586,  0.1046,  0.1653
1492035350.3788390160,1492035350.3812680244, -0.2014, -0.0330,  0.0574,  0.0586,  0.1124,  0.1870
1492035350.3816471100,1492035350.3840739727, -0.2014, -0.0330,  0.0574,  0.0725,  0.1152,  0.1870
1492035350.3844509125,1492035350.3868820667, -0.2014, -0.0330,  0.0574,  0.0725,  0.1152,  0.1870
1492035350.3872570992,1492035350.3896780014, -0.2234,  0.0140,  0.0220,  0.0725,  0.1152,  0.1870
1492035350.3900659084,1492035350.3923640251, -0.2234,  0.0140,  0.0220,  0.0858,  0.1298,  0.1989
1492035350.3927330971,1492035350.3950290680, -0.2234,  0.0140,  0.0220,  0.0858,  0.1298,  0.1989
1492035350.3953979015,1492035350.3976929188, -0.2234,  0.0140,  0.0220,  0.0858,  0.1298,  0.1989
1492035350.3981659412,1492035350.4005250931, -0.2234,  0.0140,  0.0220,  0.0858,  0.1298,  0.1989
1492035350.4009020329,1492035350.4033219814, -0.2234,  0.0140,  0.0220,  0.1113,  0.1424,  0.2064
1492035350.4036979675,1492035350.4061260223, -0.2234,  0.0140,  0.0220,  0.1113,  0.1424,  0.2064
1492035350.4065029621,1492035350.4089260101, -0.2560,  0.0103,  0.0424,  0.1113,  0.1424,  0.2064
1492035350.4093019962,1492035350.4117450714, -0.2560,  0.0103,  0.0424,  0.1113,  0.1424,  0.2220
1492035350.4121239185,1492035350.4145519733, -0.2560,  0.0103,  0.0424,  0.1253,  0.1568,  0.2216
1492035350.4149270058,1492035350.4173541069, -0.2560,  0.0103,  0.0424,  0.1253,  0.1568,  0.2216
1492035350.4177279472,1492035350.4201650620, -0.2560,  0.0103,  0.0424,  0.1253,  0.1568,  0.2216
1492035350.4205420017,1492035350.4229741096, -0.2560,  0.0103,  0.0424,  0.1351,  0.1687,  0.2413
1492035350.4233489037,1492035350.4257709980, -0.2560,  0.0103,  0.0424,  0.1351,  0.1687,  0.2413
1492035350.4261460304,1492035350.4285690784, -0.2964, -0.0034,  0.0274,  0.1351,  0.1687,  0.2413
1492035350.4289450645,1492035350.4314210415, -0.2964, -0.0034,  0.0274,  0.1351,  0.1687,  0.2413
1492035350.4317989349,1492035350.4342229366, -0.2964, -0.0034,  0.0274,  0.1212,  0.1923,  0.2570
1492035350.4345989227,1492035350.4370269775, -0.2964, -0.0034,  0.0274,  0.1212,  0.1923,  0.2570
1492035350.4374029636,1492035350.4398300648, -0.2964, -0.0034,  0.0274,  0.1212,  0.1923,  0.2570
1492035350.4402139187,1492035350.4425139427, -0.2964, -0.0034,  0.0274,  0.1212,  0.1923,  0.2727
1492035350.4428849220,1492035350.4451880455, -0.2964, -0.0034,  0.0274,  0.0741,  0.1997,  0.2708
1492035350.4455559254,1492035350.4478559494, -0.3106, -0.0117,  0.0334,  0.0741,  0.1997,  0.2708
1492035350.4482231140,1492035350.4505538940, -0.3106, -0.0117,  0.0334,  0.0741,  0.1997,  0.2708
1492035350.4509289265,1492035350.4533610344, -0.3106, -0.0117,  0.0334,  0.0741,  0.1919,  0.2706
1492035350.4537398815,1492035350.4561591148, -0.3106, -0.0117,  0.0334,  0.0649,  0.1952,  0.2706
1492035350.4565360546,1492035350.4589660168, -0.3106, -0.0117,  0.0334,  0.0649,  0.1952,  0.2706
1492035350.4593410492,1492035350.4617679119, -0.3106, -0.0117,  0.0334,  0.0649,  0.1952,  0.2706
1492035350.4621450901,1492035350.4645690918, -0.3106, -0.0117,  0.0334,  0.0625,  0.2061,  0.2704
1492035350.4649469852,1492035350.4673750401, -0.3106, -0.0017,  0.0344,  0.0625,  0.2061,  0.2704
1492035350.4677519798,1492035350.4702179432, -0.2782, -0.0017,  0.0344,  0.0625,  0.2061,  0.2704
1492035350.4705960751,1492035350.4730169773, -0.2782, -0.0017,  0.0344,  0.0625,  0.2061,  0.2704
1492035350.4733939171,1492035350.4758169651, -0.2782, -0.0017,  0.0344,  0.0474,  0.1958,  0.2683
1492035350.4761950970,1492035350.4786169529, -0.2782, -0.0017,  0.0344,  0.0474,  0.1958,  0.2683
1492035350.4789929390,1492035350.4814250469, -0.2782, -0.0017,  0.0344,  0.0474,  0.1958,  0.2683
1492035350.4818010330,1492035350.4842269421, -0.2782, -0.0017,  0.0344,  0.0474,  0.1880,  0.2523
1492035350.4846050739,1492035350.4870209694, -0.2782, -0.0486,  0.0321,  0.0173,  0.1895,  0.2523
1492035350.4873969555,1492035350.4898250103, -0.2290, -0.0531,  0.0321,  0.0173,  0.1895,  0.2523
1492035350.4902119637,1492035350.4925110340, -0.2290, -0.0531,  0.0321,  0.0173,  0.1895,  0.2523
1492035350.4928789139,1492035350.4951770306, -0.2290, -0.0531,  0.0321, -0.0050,  0.1695,  0.2411
1492035350.4955461025,1492035350.4978458881, -0.2290, -0.0531,  0.0321, -0.0050,  0.1695,  0.2411
1492035350.4982159138,1492035350.5005519390, -0.2290, -0.0531,  0.0321, -0.0050,  0.1695,  0.2411
1492035350.5009291172,1492035350.5033619404, -0.2290, -0.0531,  0.0321, -0.0050,  0.1695,  0.2411
1492035350.5037419796,1492035350.5061609745, -0.2290, -0.0531,  0.0321,  0.0053,  0.1462,  0.2219
1492035350.5065379143,1492035350.5089590549, -0.1910, -0.0598,  0.0478,  0.0053,  0.1462,  0.2219
1492035350.5093369484,1492035350.5117750168, -0.1910, -0.0598,  0.0478,  0.0053,  0.1462,  0.2219
1492035350.5121519566,1492035350.5145759583, -0.1910, -0.0598,  0.0478,  0.0053,  0.1462,  0.1985
1492035350.5150671005,1492035350.5174939632, -0.1910, -0.0598,  0.0478,  0.0199,  0.1229,  0.1974
1492035350.5178730488,1492035350.5203120708, -0.1910, -0.0598,  0.0478,  0.0199,  0.1229,  0.1974
1492035350.5206890106,1492035350.5231139660, -0.1910, -0.0598,  0.0478,  0.0199,  0.1229,  0.1974
1492035350.5234889984,1492035350.5259230137, -0.1910, -0.0598,  0.0478,  0.0207,  0.0976,  0.1651
1492035350.5262999535,1492035350.5287230015, -0.1545, -0.0835,  0.0388,  0.0207,  0.0976,  0.1651
1492035350.5290989876,1492035350.5315361023, -0.1545, -0.0835,  0.0388,  0.0207,  0.0976,  0.1651
1492035350.5319130421,1492035350.5343410969, -0.1545, -0.0835,  0.0388,  0.0207,  0.0976,  0.1651
1492035350.5347170830,1492035350.5371398926, -0.1545, -0.0835,  0.0388,  0.0175,  0.0708,  0.1265
1492035350.5375170708,1492035350.5399401188, -0.1545, -0.0835,  0.0388,  0.0175,  0.0708,  0.1265
1492035350.5403740406,1492035350.5426731110, -0.1545, -0.0835,  0.0388,  0.0175,  0.0708,  0.1265
1492035350.5430409908,1492035350.5453360081, -0.1545, -0.0835,  0.0388,  0.0175,  0.0708,  0.0874
1492035350.5457038879,1492035350.5480039120, -0.1401, -0.0828,  0.0325,  0.0192,  0.0434,  0.0883
1492035350.5483710766,1492035350.5507190228, -0.1401, -0.0828,  0.0325,  0.0192,  0.0434,  0.0883
1492035350.5510969162,1492035350.5535209179, -0.1401, -0.0828,  0.0325,  0.0192,  0.0434,  0.0883
1492035350.5538969040,1492035350.5563271046, -0.1401, -0.0828,  0.0325,  0.0192,  0.0121,  0.0483
1492035350.5567018986,1492035350.5591259003, -0.1401, -0.0828,  0.0325,  0.0196,  0.0132,  0.0483
1492035350.5595018864,1492035350.5619330406, -0.1401, -0.0828,  0.0325,  0.0196,  0.0132,  0.0483
1492035350.5623109341,1492035350.5647439957, -0.1401, -0.0828,  0.0325,  0.0196,  0.0132,  0.0483
1492035350.5651199818,1492035350.5675420761, -0.1357, -0.0583,  0.0176,  0.0174, -0.0160,  0.0042
1492035350.5679180622,1492035350.5703599453, -0.1357, -0.0583,  0.0176,  0.0174, -0.0160,  0.0042
1492035350.5707380772,1492035350.5731658936, -0.1357, -0.0583,  0.0176,  0.0174, -0.0160,  0.0042
1492035350.5735430717,1492035350.5759639740, -0.1357, -0.0583,  0.0176,  0.0174, -0.0160,  0.0042
1492035350.5763399601,1492035350.5787699223, -0.1357, -0.0583,  0.0176,  0.0279, -0.0451, -0.0428
1492035350.5791449547,1492035350.5815739632, -0.1357, -0.0583,  0.0176,  0.0279, -0.0451, -0.0428
1492035350.5819499493,1492035350.5843749046, -0.1357, -0.0583,  0.0176,  0.0279, -0.0451, -0.0428
1492035350.5847508907,1492035350.5871798992, -0.1367, -0.0434,  0.0128,  0.0279, -0.0685, -0.0905
1492035350.5875549316,1492035350.5900199413, -0.1367, -0.0434,  0.0128,  0.0454, -0.0703, -0.0905
1492035350.5903899670,1492035350.5926980972, -0.1367, -0.0434,  0.0128,  0.0454, -0.0703, -0.0905
1492035350.5930669308,1492035350.5953660011, -0.1367, -0.0434,  0.0128,  0.0454, -0.0703, -0.0905
1492035350.5957338810,1492035350.5980279446, -0.1367, -0.0434,  0.0128,  0.0624, -0.0946, -0.1346
1492035350.5983960629,1492035350.6007449627, -0.1367, -0.0434,  0.0128,  0.0624, -0.0946, -0.1346
1492035350.6011219025,1492035350.6035470963, -0.1367, -0.0434,  0.0128,  0.0624, -0.0946, -0.1346
1492035350.6039249897,1492035350.6063539982, -0.1445, -0.0225,  0.0098,  0.0624, -0.0946, -0.1346
1492035350.6067318916,1492035350.6091620922, -0.1446, -0.0225,  0.0098,  0.0828, -0.1195, -0.1740
1492035350.6095380783,1492035350.6119670868, -0.1446, -0.0225,  0.0098,  0.0828, -0.1195, -0.1740
1492035350.6123459339,1492035350.6147739887, -0.1446, -0.0225,  0.0098,  0.0828, -0.1195, -0.1740
1492035350.6151530743,1492035350.6175739765, -0.1446, -0.0225,  0.0098,  0.0828, -0.1195, -0.2082
1492035350.6179509163,1492035350.6204209328, -0.1446, -0.0225,  0.0098,  0.1016, -0.1435, -0.2082
1492035350.6207990646,1492035350.6232299805, -0.1446, -0.0225,  0.0098,  0.1016, -0.1435, -0.2082
1492035350.6236059666,1492035350.6260309219, -0.1446, -0.0145,  0.0074,  0.1016, -0.1435, -0.2082
1492035350.6264100075,1492035350.6288321018, -0.1558, -0.0145,  0.0074,  0.1138, -0.1660, -0.2375
1492035350.6292090416,1492035350.6316471100, -0.1558, -0.0145,  0.0074,  0.1138, -0.1660, -0.2375
1492035350.6321299076,1492035350.6345539093, -0.1558, -0.0145,  0.0074,  0.1138, -0.1660, -0.2375
1492035350.6349329948,1492035350.6373610497, -0.1558, -0.0145,  0.0074,  0.1138, -0.1660, -0.2375
1492035350.6377389431,1492035350.6401579380, -0.1558, -0.0145,  0.0074,  0.1239, -0.1891, -0.2617
1492035350.6405279636,1492035350.6428310871, -0.1558, -0.0145,  0.0074,  0.1239, -0.1891, -0.2617
1492035350.6432011127,1492035350.6455049515, -0.1558, -0.0067,  0.0220,  0.1239, -0.1891, -0.2617
1492035350.6458759308,1492035350.6481730938, -0.1652, -0.0042,  0.0220,  0.1239, -0.1891, -0.2617
1492035350.6485428810,1492035350.6508989334, -0.1652, -0.0042,  0.0220,  0.1339, -0.2105, -0.2813
1492035350.6512770653,1492035350.6537089348, -0.1652, -0.0042,  0.0220,  0.1339, -0.2105, -0.2813
1492035350.6540861130,1492035350.6565101147, -0.1652, -0.0042,  0.0220,  0.1339, -0.2105, -0.2813
1492035350.6568870544,1492035350.6593129635, -0.1652, -0.0042,  0.0220,  0.1339, -0.2321, -0.2954
1492035350.6596889496,1492035350.6621348858, -0.1652, -0.0042,  0.0220,  0.1366, -0.2321, -0.2954
1492035350.6625139713,1492035350.6649460793, -0.1652, -0.0042,  0.0298,  0.1366, -0.2321, -0.2954
1492035350.6653239727,1492035350.6677539349, -0.1787, -0.0077,  0.0276,  0.1366, -0.2321, -0.2954
1492035350.6681311131,1492035350.6705739498, -0.1787, -0.0077,  0.0276,  0.1257, -0.2500, -0.3011
1492035350.6709520817,1492035350.6733798981, -0.1787, -0.0077,  0.0276,  0.1257, -0.2500, -0.3011
1492035350.6737558842,1492035350.6761860847, -0.1787, -0.0077,  0.0276,  0.1257, -0.2500, -0.3011
1492035350.6765630245,1492035350.6789870262, -0.1787, -0.0077,  0.0276,  0.1257, -0.2500, -0.3011
1492035350.6793639660,1492035350.6818420887, -0.1787, -0.0077,  0.0276,  0.1046, -0.2626, -0.3043
1492035350.6822180748,1492035350.6846449375, -0.1787, -0.0077,  0.0042,  0.1046, -0.2626, -0.3043
1492035350.6850209236,1492035350.6874439716, -0.1929,  0.0139,  0.0034,  0.1046, -0.2626, -0.3043
1492035350.6878221035,1492035350.6902480125, -0.1929,  0.0139,  0.0034,  0.0890, -0.2697, -0.3095
1492035350.6906180382,1492035350.6929190159, -0.1929,  0.0139,  0.0034,  0.0867, -0.2697, -0.3095
1492035350.6932868958,1492035350.6955859661, -0.1929,  0.0139,  0.0034,  0.0867, -0.2697, -0.3095
1492035350.6959550381,1492035350.6982629299, -0.1929,  0.0139,  0.0034,  0.0867, -0.2697, -0.3095
1492035350.6986310482,1492035350.7010319233, -0.1929,  0.0139,  0.0034,  0.0731, -0.2713, -0.3172
1492035350.7014100552,1492035350.7038381100, -0.1929,  0.0139,  0.0034,  0.0731, -0.2713, -0.3172
1492035350.7042150497,1492035350.7066409588, -0.2128,  0.0569, -0.0196,  0.0731, -0.2713, -0.3172
1492035350.7070169449,1492035350.7094390392, -0.2128,  0.0569, -0.0196,  0.0731, -0.2713, -0.3172
1492035350.7098150253,1492035350.7122409344, -0.2128,  0.0569, -0.0196,  0.0654, -0.2642, -0.3247
1492035350.7126159668,1492035350.7150399685, -0.2128,  0.0569, -0.0196,  0.0654, -0.2642, -0.3247
1492035350.7154140472,1492035350.7178399563, -0.2128,  0.0569, -0.0196,  0.0654, -0.2642, -0.3247
1492035350.7182159424,1492035350.7206599712, -0.2128,  0.0569, -0.0196,  0.0654, -0.2642, -0.3298
1492035350.7210381031,1492035350.7234640121, -0.2128,  0.0569, -0.0196,  0.0670, -0.2494, -0.3298
1492035350.7238409519,1492035350.7262699604, -0.2202,  0.0924, -0.0532,  0.0670, -0.2494, -0.3298
1492035350.7266449928,1492035350.7290699482, -0.2202,  0.0924, -0.0532,  0.0670, -0.2494, -0.3298
1492035350.7294459343,1492035350.7317879200, -0.2202,  0.0924, -0.0532,  0.0766, -0.2291, -0.3313
1492035350.7321588993,1492035350.7344648838, -0.2202,  0.0924, -0.0532,  0.0766, -0.2291, -0.3313
1492035350.7348339558,1492035350.7371311188, -0.2202,  0.0924, -0.0532,  0.0766, -0.2291, -0.3313
1492035350.7374989986,1492035350.7398018837, -0.2202,  0.0924, -0.0532,  0.0766, -0.2291, -0.3313
1492035350.7401781082,1492035350.7426009178, -0.2202,  0.0924, -0.0532,  0.0724, -0.2032, -0.3251
1492035350.7429780960,1492035350.7454030514, -0.2299,  0.1169, -0.0834,  0.0724, -0.2032, -0.3251
1492035350.7457799911,1492035350.7482109070, -0.2299,  0.1169, -0.0834,  0.0724, -0.2032, -0.3251
1492035350.7486929893,1492035350.7511310577, -0.2299,  0.1169, -0.0834,  0.0724, -0.2032, -0.3094
1492035350.7515079975,1492035350.7539310455, -0.2299,  0.1169, -0.0834,  0.0645, -0.1782, -0.3098
1492035350.7543098927,1492035350.7567329407, -0.2299,  0.1169, -0.0834,  0.0645, -0.1782, -0.3098
1492035350.7571089268,1492035350.7595300674, -0.2299,  0.1169, -0.0834,  0.0645, -0.1782, -0.3098
1492035350.7599079609,1492035350.7623438835, -0.2299,  0.1169, -0.0834,  0.0410, -0.1469, -0.2788
1492035350.7627220154,1492035350.7651510239, -0.2326,  0.1728, -0.1050,  0.0432, -0.1469, -0.2788
1492035350.7655260563,1492035350.7679510117, -0.2326,  0.1728, -0.1050,  0.0432, -0.1469, -0.2788
1492035350.7683269978,1492035350.7707219124, -0.2326,  0.1728, -0.1050,  0.0432, -0.1469, -0.2788
1492035350.7710928917,1492035350.7733919621, -0.2326,  0.1728, -0.1050,  0.0100, -0.1129, -0.2358
1492035350.7737619877,1492035350.7760570049, -0.2326,  0.1728, -0.1050,  0.0100, -0.1129, -0.2358
1492035350.7764270306,1492035350.7787299156, -0.2326,  0.1728, -0.1050,  0.0100, -0.1129, -0.2358
1492035350.7790989876,1492035350.7814788818, -0.2326,  0.1728, -0.1050,  0.0100, -0.1129, -0.2358
1492035350.7818570137,1492035350.7842779160, -0.2326,  0.2119, -0.0965, -0.0257, -0.0786, -0.1833
1492035350.7846550941,1492035350.7870850563, -0.2122,  0.2123, -0.0965, -0.0257, -0.0786, -0.1833
1492035350.7874629498,1492035350.7898900509, -0.2122,  0.2123, -0.0965, -0.0257, -0.0786, -0.1833
1492035350.7902660370,1492035350.7926928997, -0.2122,  0.2123, -0.0965, -0.0257, -0.0786, -0.1147
1492035350.7930710316,1492035350.7954969406, -0.2122,  0.2123, -0.0965, -0.0743, -0.0458, -0.1147
1492035350.7958729267,1492035350.7982990742, -0.2122,  0.2123, -0.0965, -0.0743, -0.0458, -0.1147
1492035350.7986769676,1492035350.8011178970, -0.2122,  0.2123, -0.0965, -0.0743, -0.0458, -0.1147
1492035350.8014960289,1492035350.8039140701, -0.2122,  0.2123, -0.0781, -0.1139, -0.0180, -0.0442
1492035350.8042900562,1492035350.8067131042, -0.1640,  0.2601, -0.0781, -0.1139, -0.0180, -0.0442
1492035350.8070900440,1492035350.8095149994, -0.1640,  0.2601, -0.0781, -0.1139, -0.0180, -0.0442
1492035350.8098919392,1492035350.8123209476, -0.1640,  0.2601, -0.0781, -0.1139, -0.0180, -0.0442
1492035350.8126969337,1492035350.8151230812, -0.1640,  0.2601, -0.0781, -0.1249,  0.0014,  0.0178
1492035350.8155000210,1492035350.8179259300, -0.1640,  0.2601, -0.0781, -0.1249,  0.0014,  0.0178
1492035350.8183050156,1492035350.8207089901, -0.1640,  0.2601, -0.0781, -0.1249,  0.0014,  0.0178
1492035350.8210821152,1492035350.8233850002, -0.1640,  0.2601, -0.0703, -0.1249,  0.0014,  0.0724
1492035350.8237540722,1492035350.8260519505, -0.0972,  0.2653, -0.0655, -0.1051,  0.0137,  0.0724
1492035350.8264210224,1492035350.8287169933, -0.0972,  0.2653, -0.0655, -0.1051,  0.0137,  0.0724
1492035350.8290860653,1492035350.8313980103, -0.0972,  0.2653, -0.0655, -0.1051,  0.0137,  0.0724
1492035350.8317689896,1492035350.8340671062, -0.0972,  0.2653, -0.0655, -0.1051,  0.0293,  0.0990
1492035350.8344359398,1492035350.8367340565, -0.0972,  0.2653, -0.0655, -0.0758,  0.0280,  0.0990
1492035350.8371019363,1492035350.8393969536, -0.0972,  0.2653, -0.0655, -0.0758,  0.0280,  0.0990
1492035350.8397660255,1492035350.8422160149, -0.0972,  0.2653, -0.0655, -0.0758,  0.0280,  0.0990
1492035350.8425910473,1492035350.8450078964, -0.0356,  0.1740, -0.0863, -0.0555,  0.0386,  0.1148
1492035350.8453860283,1492035350.8477990627, -0.0356,  0.1740, -0.0863, -0.0555,  0.0386,  0.1148
1492035350.8481750488,1492035350.8506300449, -0.0356,  0.1740, -0.0863, -0.0555,  0.0386,  0.1148
1492035350.8510050774,1492035350.8534181118, -0.0356,  0.1740, -0.0863, -0.0555,  0.0386,  0.1148
1492035350.8537950516,1492035350.8562018871, -0.0356,  0.1740, -0.0863, -0.0481,  0.0538,  0.1345
1492035350.8565790653,1492035350.8589940071, -0.0356,  0.1740, -0.0863, -0.0481,  0.0538,  0.1345
1492035350.8593690395,1492035350.8618240356, -0.0356,  0.1740, -0.0863, -0.0481,  0.0538,  0.1345
1492035350.8622999191,1492035350.8647139072, -0.0172,  0.0311, -0.0765, -0.0481,  0.0538,  0.1267
1492035350.8650910854,1492035350.8675029278, -0.0172,  0.0311, -0.0765, -0.0541,  0.0432,  0.1267
1492035350.8678789139,1492035350.8702979088, -0.0172,  0.0311, -0.0765, -0.0541,  0.0432,  0.1267
1492035350.8706719875,1492035350.8730831146, -0.0172,  0.0311, -0.0765, -0.0541,  0.0432,  0.1267
1492035350.8734610081,1492035350.8758800030, -0.0172,  0.0311, -0.0765, -0.1160,  0.0588,  0.1070
1492035350.8762569427,1492035350.8786680698, -0.0172,  0.0311, -0.0765, -0.1160,  0.0588,  0.1070
1492035350.8790440559,1492035350.8814079762, -0.0172,  0.0311, -0.0765, -0.1160,  0.0588,  0.1070
1492035350.8817760944,1492035350.8841099739, -0.1725,  0.1751,  0.5940, -0.1160,  0.0588,  0.1070
1492035350.8844799995,1492035350.8867781162, -0.1725,  0.1751,  0.5940, -0.1620, -0.1723,  0.2187
1492035350.8871450424,1492035350.8894529343, -0.1725,  0.1751,  0.5940, -0.1620, -0.1723,  0.2187
1492035350.8898210526,1492035350.8922820091, -0.1725,  0.1751,  0.5940, -0.1620, -0.1723,  0.2187
1492035350.8926570415,1492035350.8950829506, -0.1725,  0.1751,  0.5940, -0.1620, -0.1723,  0.2187
1492035350.8954579830,1492035350.8978879452, -0.1725,  0.1751,  0.5940, -0.2905, -0.3301,  0.3477
1492035350.8982629776,1492035350.9006969929, -0.1725,  0.1751,  0.5940, -0.2905, -0.3301,  0.3477
1492035350.9010720253,1492035350.9035019875, -0.1725, -0.0903, -0.2910, -0.2905, -0.3301,  0.3477
1492035350.9038789272,1492035350.9062979221, -0.8599, -0.0903, -0.2910, -0.2905,  0.3448, -0.0513
1492035350.9066751003,1492035350.9090979099, -0.8599, -0.0903, -0.2910,  0.1710,  0.3448, -0.0513
1492035350.9094750881,1492035350.9119191170, -0.8599, -0.0903, -0.2910,  0.1710,  0.3448, -0.0513
1492035350.9122951031,1492035350.9147229195, -0.8599, -0.0903, -0.2910,  0.1710,  0.3448, -0.0513
1492035350.9151000977,1492035350.9175229073, -0.8599, -0.0903, -0.2910,  0.1046,  0.1226,  0.4258
1492035350.9179010391,1492035350.9203391075, -0.8599, -0.0903, -0.2910,  0.1046,  0.1226,  0.4258
1492035350.9207160473,1492035350.9231419563, -0.8599,  0.0252, -0.3404,  0.1046,  0.1226,  0.4258
1492035350.9235188961,1492035350.9259529114, -0.0300,  0.0252, -0.3404,  0.1046,  0.1226,  0.4258
1492035350.9263310432,1492035350.9287519455, -0.0300,  0.0252, -0.3404, -0.1199,  0.1975,  0.4086
1492035350.9291279316,1492035350.9314770699, -0.0300,  0.0252, -0.3404, -0.1199,  0.1975,  0.4086
1492035350.9318470955,1492035350.9341530800, -0.0300,  0.0252, -0.3404, -0.1199,  0.1975,  0.4086
1492035350.9345231056,1492035350.9368219376, -0.0300,  0.0252, -0.3404, -0.1199,  0.0881,  0.4223
1492035350.9371919632,1492035350.9394900799, -0.0300,  0.0252, -0.3404, -0.1179,  0.0896,  0.4223
1492035350.9398589134,1492035350.9421660900, -0.0300,  0.0252,  0.0893, -0.1179,  0.0896,  0.4223
1492035350.9425349236,1492035350.9448270798, -0.0612,  0.2461,  0.0916, -0.1179,  0.0896,  0.4223
1492035350.9451949596,1492035350.9474909306, -0.0612,  0.2461,  0.0916,  0.0227, -0.0833,  0.3984
1492035350.9478609562,1492035350.9502289295, -0.0612,  0.2461,  0.0916,  0.0198, -0.0833,  0.3984
1492035350.9506070614,1492035350.9530351162, -0.0612,  0.2461,  0.0916,  0.0198, -0.0833,  0.3984
1492035350.9534111023,1492035350.9558351040, -0.0612,  0.2461,  0.0916,  0.0198, -0.0833,  0.3984
1492035350.9562110901,1492035350.9586329460, -0.0612,  0.2461,  0.0916,  0.0506,  0.0841,  0.2642
1492035350.9590098858,1492035350.9614429474, -0.0612,  0.2461,  0.0916,  0.0506,  0.0841,  0.2642
1492035350.9618170261,1492035350.9642429352, -0.1662,  0.0357, -0.0658,  0.0506,  0.0841,  0.2642
1492035350.9646179676,1492035350.9670441151, -0.1662,  0.0357, -0.0658,  0.0506,  0.0841,  0.2642
1492035350.9674201012,1492035350.9698510170, -0.1662,  0.0357, -0.0658,  0.1232,  0.0553,  0.1958
1492035350.9702370167,1492035350.9726610184, -0.1662,  0.0357, -0.0658,  0.1232,  0.0553,  0.1958
1492035350.9730370045,1492035350.9754590988, -0.1662,  0.0357, -0.0658,  0.1232,  0.0553,  0.1958
1492035350.9758350849,1492035350.9782629013, -0.1662,  0.0357, -0.0658,  0.1232,  0.0709,  0.1916
1492035350.9787509441,1492035350.9812738895, -0.1662,  0.0357, -0.0658,  0.1101,  0.0709,  0.1916
1492035350.9816501141,1492035350.9840750694, -0.1945,  0.1534, -0.0572,  0.1101,  0.0709,  0.1916
1492035350.9844529629,1492035350.9868800640, -0.1945,  0.1534, -0.0572,  0.1101,  0.0709,  0.1916
1492035350.9872570038,1492035350.9896800518, -0.1945,  0.1534, -0.0572,  0.1210,  0.0808,  0.1658
1492035350.9900660515,1492035350.9923739433, -0.1945,  0.1534, -0.0572,  0.1210,  0.0808,  0.1658
1492035350.9927420616,1492035350.9950430393, -0.1945,  0.1534, -0.0572,  0.1210,  0.0808,  0.1658
1492035350.9954121113,1492035350.9977090359, -0.1945,  0.1534, -0.0572,  0.1210,  0.0808,  0.1658
1492035350.9980790615,1492035351.0004470348, -0.1945,  0.1534, -0.0572,  0.1215,  0.0638,  0.1458
1492035351.0008230209,1492035351.0032451153, -0.2010,  0.0777, -0.0030,  0.1215,  0.0638,  0.1458
1492035351.0036220551,1492035351.0060489178, -0.2010,  0.0777, -0.0030,  0.1215,  0.0638,  0.1458
1492035351.0064289570,1492035351.0088610649, -0.2010,  0.0777, -0.0030,  0.1215,  0.0482,  0.1330
1492035351.0092389584,1492035351.0116798878, -0.2010,  0.0777, -0.0030,  0.0936,  0.0536,  0.1330
1492035351.0120570660,1492035351.0144829750, -0.2010,  0.0777, -0.0030,  0.0936,  0.0536,  0.1330
1492035351.0148589611,1492035351.0172870159, -0.2010,  0.0777, -0.0030,  0.0936,  0.0536,  0.1330
1492035351.0176670551,1492035351.0201039314, -0.2010,  0.0777, -0.0030,  0.0984,  0.0582,  0.1182
1492035351.0204811096,1492035351.0229120255, -0.2076,  0.1085, -0.0291,  0.0984,  0.0582,  0.1182
1492035351.0232889652,1492035351.0257160664, -0.2076,  0.1085, -0.0291,  0.0984,  0.0582,  0.1182
1492035351.0260961056,1492035351.0285160542, -0.2076,  0.1085, -0.0291,  0.0984,  0.0582,  0.1182
1492035351.0288929939,1492035351.0313320160, -0.2076,  0.1085, -0.0291,  0.1156,  0.0866,  0.0977
1492035351.0317089558,1492035351.0341329575, -0.2076,  0.1085, -0.0291,  0.1156,  0.0866,  0.0977
1492035351.0345120430,1492035351.0369439125, -0.2076,  0.1085, -0.0291,  0.1156,  0.0866,  0.0977
1492035351.0373220444,1492035351.0397489071, -0.2076,  0.1085, -0.0291,  0.1156,  0.2116,  0.0505
1492035351.0401370525,1492035351.0424408913, -0.1273,  0.1080,  0.2004,  0.2241,  0.2117,  0.0505
1492035351.0428109169,1492035351.0451159477, -0.1273,  0.1080,  0.2004,  0.2241,  0.2117,  0.0505
1492035351.0454859734,1492035351.0477828979, -0.1273,  0.1080,  0.2004,  0.2241,  0.2117,  0.0505
1492035351.0481529236,1492035351.0504529476, -0.1273,  0.1080,  0.2004,  0.0991,  0.0665,  0.0486
1492035351.0508220196,1492035351.0531239510, -0.1273,  0.1080,  0.2004,  0.1012,  0.0665,  0.0486
1492035351.0534930229,1492035351.0557930470, -0.1273,  0.1080,  0.2004,  0.1012,  0.0665,  0.0486
1492035351.0561609268,1492035351.0584599972, -0.1273,  0.1080,  0.2004,  0.1012,  0.0665,  0.0486
1492035351.0588281155,1492035351.0612509251, -0.1273,  0.1080,  0.0363,  0.0908,  0.0816,  0.0178
1492035351.0616269112,1492035351.0640380383, -0.2516,  0.1296,  0.0371,  0.0908,  0.0816,  0.0178
1492035351.0644140244,1492035351.0668270588, -0.2516,  0.1296,  0.0371,  0.0908,  0.0816,  0.0178
1492035351.0672020912,1492035351.0696110725, -0.2516,  0.1296,  0.0371,  0.0908,  0.0816,  0.0178
1492035351.0700209141,1492035351.0724339485, -0.2516,  0.1296,  0.0371,  0.0484,  0.0634, -0.0025
1492035351.0728108883,1492035351.0752260685, -0.2516,  0.1296,  0.0371,  0.0484,  0.0634, -0.0025
1492035351.0755999088,1492035351.0780110359, -0.2516,  0.1296,  0.0371,  0.0484,  0.0634, -0.0025
1492035351.0783860683,1492035351.0808351040, -0.2516,  0.1296,  0.0371,  0.0484,  0.0634, -0.0420
1492035351.0812079906,1492035351.0835940838, -0.3560,  0.0719,  0.0254,  0.0715,  0.0771, -0.0420
1492035351.0839679241,1492035351.0863530636, -0.3560,  0.0719,  0.0254,  0.0715,  0.0771, -0.0420
1492035351.0867240429,1492035351.0891139507, -0.3560,  0.0719,  0.0254,  0.0715,  0.0771, -0.0420
1492035351.0894870758,1492035351.0919160843, -0.3560,  0.0719,  0.0254,  0.0558,  0.0493, -0.0637
1492035351.0922849178,1492035351.0945820808, -0.3560,  0.0719,  0.0254,  0.0558,  0.0493, -0.0637
1492035351.0950629711,1492035351.0973670483, -0.3560,  0.0719,  0.0254,  0.0558,  0.0493, -0.0637
1492035351.0977339745,1492035351.1000699997, -0.3560,  0.0719,  0.0254,  0.0558,  0.0493, -0.0637
1492035351.1004459858,1492035351.1028718948, -0.4196,  0.0292,  0.1051,  0.0477,  0.0387, -0.0534
1492035351.1032500267,1492035351.1056709290, -0.4196,  0.0292,  0.1051,  0.0477,  0.0387, -0.0534
1492035351.1060490608,1492035351.1084721088, -0.4196,  0.0292,  0.1051,  0.0477,  0.0387, -0.0534
1492035351.1088480949,1492035351.1112940311, -0.4196,  0.0292,  0.1051,  0.0477,  0.0387, -0.0143
1492035351.1116709709,1492035351.1140971184, -0.4196,  0.0292,  0.1051,  0.0318,  0.0446, -0.0127
1492035351.1144740582,1492035351.1168990135, -0.4196,  0.0292,  0.1051,  0.0318,  0.0446, -0.0127
1492035351.1172759533,1492035351.1197030544, -0.4196,  0.0292,  0.1051,  0.0318,  0.0446, -0.0127
1492035351.1200900078,1492035351.1225140095, -0.2967, -0.0882,  0.1321,  0.0084,  0.0327,  0.0355
1492035351.1228890419,1492035351.1253221035, -0.2967, -0.0882,  0.1321,  0.0148,  0.0327,  0.0355
1492035351.1256999969,1492035351.1281270981, -0.2967, -0.0882,  0.1321,  0.0148,  0.0327,  0.0355
1492035351.1285040379,1492035351.1309399605, -0.2967, -0.0882,  0.1321,  0.0148,  0.0327,  0.0355
1492035351.1313149929,1492035351.1337420940, -0.2967, -0.0882,  0.1321,  0.0447,  0.0150,  0.0727
1492035351.1341168880,1492035351.1365420818, -0.2967, -0.0882,  0.1321,  0.0447,  0.0150,  0.0727
1492035351.1369180679,1492035351.1393399239, -0.2967, -0.0882,  0.1321,  0.0447,  0.0150,  0.0727
1492035351.1397159100,1492035351.1420478821, -0.1938, -0.1366,  0.1357,  0.0447,  0.0150,  0.0727
1492035351.1424150467,1492035351.1447119713, -0.1938, -0.1366,  0.1357,  0.0654,  0.0170,  0.0958
1492035351.1450800896,1492035351.1473829746, -0.1938, -0.1366,  0.1357,  0.0654,  0.0170,  0.0958
1492035351.1477510929,1492035351.1500830650, -0.1938, -0.1366,  0.1357,  0.0654,  0.0170,  0.0958
1492035351.1504609585,1492035351.1528739929, -0.1938, -0.1366,  0.1357,  0.0654,  0.0170,  0.0704
1492035351.1532509327,1492035351.1556820869, -0.1938, -0.1366,  0.1357,  0.0713, -0.0537,  0.0704
1492035351.1560568810,1492035351.1584808826, -0.1938, -0.1366,  0.1357,  0.0713, -0.0537,  0.0704
1492035351.1588580608,1492035351.1612939835, -0.3266,  0.0413, -0.1068,  0.0713, -0.0537,  0.0704
1492035351.1616740227,1492035351.1641070843, -0.3217,  0.0413, -0.1068,  0.2647,  0.0230,  0.0313
1492035351.1644830704,1492035351.1669061184, -0.3217,  0.0413, -0.1068,  0.2647,  0.0230,  0.0313
1492035351.1672830582,1492035351.1697099209, -0.3217,  0.0413, -0.1068,  0.2647,  0.0230,  0.0313
1492035351.1700990200,1492035351.1725161076, -0.3217,  0.0413, -0.1068,  0.2647,  0.0230,  0.0313
1492035351.1728930473,1492035351.1753220558, -0.3217,  0.0413, -0.1068,  0.1879,  0.0935,  0.1071
1492035351.1756989956,1492035351.1781320572, -0.3217,  0.0413, -0.1068,  0.1879,  0.0935,  0.1071
1492035351.1785140038,1492035351.1809520721, -0.3217,  0.1161,  0.0164,  0.1879,  0.0935,  0.1071
1492035351.1813299656,1492035351.1837511063, -0.1504,  0.1161,  0.0164,  0.1879,  0.0935,  0.1553
1492035351.1841280460,1492035351.1865611076, -0.1504,  0.1161,  0.0164,  0.1860,  0.1260,  0.1553
1492035351.1869359016,1492035351.1893610954, -0.1504,  0.1161,  0.0164,  0.1860,  0.1260,  0.1553
1492035351.1897389889,1492035351.1920809746, -0.1504,  0.1161,  0.0164,  0.1860,  0.1260,  0.1553
1492035351.1924510002,1492035351.1947479248, -0.1504,  0.1161,  0.0164,  0.1694,  0.1666,  0.2107
1492035351.1951160431,1492035351.1974129677, -0.1504,  0.1161,  0.0164,  0.1694,  0.1666,  0.2107
1492035351.1977810860,1492035351.2000861168, -0.1504,  0.1161,  0.0539,  0.1694,  0.1666,  0.2107
1492035351.2004549503,1492035351.2027509212, -0.2089, -0.0654,  0.0539,  0.1694,  0.1666,  0.2107
1492035351.2031209469,1492035351.2054190636, -0.2089, -0.0654,  0.0539,  0.1113,  0.1959,  0.2636
1492035351.2057890892,1492035351.2080891132, -0.2089, -0.0654,  0.0539,  0.1113,  0.1959,  0.2636
1492035351.2084569931,1492035351.2108368874, -0.2089, -0.0654,  0.0539,  0.1113,  0.1959,  0.2636
1492035351.2113199234,1492035351.2137451172, -0.2089, -0.0654,  0.0539,  0.1113,  0.1959,  0.2636
1492035351.2141230106,1492035351.2165420055, -0.2089, -0.0654,  0.0539,  0.0614,  0.1992,  0.2989
1492035351.2169189453,1492035351.2193410397, -0.2089, -0.0654,  0.0539,  0.0614,  0.1992,  0.2989
1492035351.2197179794,1492035351.2221519947, -0.2130, -0.1485,  0.0727,  0.0614,  0.1992,  0.2989
1492035351.2225279808,1492035351.2249510288, -0.2130, -0.1485,  0.0727,  0.0614,  0.1992,  0.3288
1492035351.2253289223,1492035351.2277469635, -0.2130, -0.1485,  0.0727,  0.0368,  0.1975,  0.3288
1492035351.2281229496,1492035351.2305550575, -0.2130, -0.1485,  0.0727,  0.0368,  0.1975,  0.3288
1492035351.2309288979,1492035351.2333528996, -0.2130, -0.1485,  0.0727,  0.0368,  0.1975,  0.3288
1492035351.2337300777,1492035351.2361600399, -0.2130, -0.1485,  0.0727,  0.0233,  0.1727,  0.3424
1492035351.2365369797,1492035351.2389559746, -0.2130, -0.1485,  0.0727,  0.0233,  0.1727,  0.3424
1492035351.2393329144,1492035351.2417650223, -0.2144, -0.0694,  0.1356,  0.0233,  0.1727,  0.3424
1492035351.2421419621,1492035351.2445690632, -0.2144, -0.0694,  0.1356,  0.0233,  0.1727,  0.3424
1492035351.2449450493,1492035351.2473690510, -0.2144, -0.0694,  0.1356,  0.0497,  0.1449,  0.3566
1492035351.2477469444,1492035351.2502040863, -0.2144, -0.0694,  0.1356,  0.0497,  0.1449,  0.3566
1492035351.2505719662,1492035351.2528760433, -0.2144, -0.0694,  0.1356,  0.0497,  0.1449,  0.3566
1492035351.2532451153,1492035351.2555439472, -0.2144, -0.0694,  0.1356,  0.0497,  0.1449,  0.3496
1492035351.2559120655,1492035351.2582159042, -0.2144, -0.0694,  0.1356,  0.0999,  0.1612,  0.3496
1492035351.2585849762,1492035351.2609789371, -0.1446, -0.0108,  0.0810,  0.0999,  0.1612,  0.3496
1492035351.2613580227,1492035351.2637789249, -0.1446, -0.0108,  0.0810,  0.0999,  0.1612,  0.3496
1492035351.2641549110,1492035351.2665839195, -0.1446, -0.0108,  0.0810,  0.1546,  0.1651,  0.3152
1492035351.2669599056,1492035351.2693850994, -0.1446, -0.0108,  0.0810,  0.1500,  0.1651,  0.3152
1492035351.2697639465,1492035351.2722311020, -0.1446, -0.0108,  0.0810,  0.1500,  0.1651,  0.3152
1492035351.2726080418,1492035351.2750320435, -0.1446, -0.0108,  0.0810,  0.1500,  0.1651,  0.3152
1492035351.2754089832,1492035351.2778310776, -0.1446, -0.0108,  0.0810,  0.2407,  0.1688,  0.2466
1492035351.2782070637,1492035351.2806479931, -0.2141, -0.1202,  0.0273,  0.2407,  0.1688,  0.2466
1492035351.2810258865,1492035351.2834510803, -0.2141, -0.1202,  0.0273,  0.2407,  0.1688,  0.2466
1492035351.2838289738,1492035351.2862548828, -0.2141, -0.1202,  0.0273,  0.2407,  0.1688,  0.1841
1492035351.2866299152,1492035351.2890601158, -0.2141, -0.1202,  0.0273,  0.3120,  0.1700,  0.1802
1492035351.2894380093,1492035351.2918820381, -0.2141, -0.1202,  0.0273,  0.3120,  0.1700,  0.1802
1492035351.2922599316,1492035351.2946839333, -0.2141, -0.1202,  0.0273,  0.3120,  0.1700,  0.1802
1492035351.2950589657,1492035351.2974929810, -0.2141, -0.1202,  0.0273,  0.3745,  0.1977,  0.1407
1492035351.2978711128,1492035351.3002979755, -0.3146, -0.1654, -0.0481,  0.3684,  0.1977,  0.1407
1492035351.3006699085,1492035351.3029708862, -0.3146, -0.1654, -0.0481,  0.3684,  0.1977,  0.1407
1492035351.3033399582,1492035351.3056399822, -0.3146, -0.1654, -0.0481,  0.3684,  0.1977,  0.1407
1492035351.3060081005,1492035351.3083040714, -0.3146, -0.1654, -0.0481,  0.3015,  0.2191,  0.0675
1492035351.3086729050,1492035351.3110160828, -0.3146, -0.1654, -0.0481,  0.3015,  0.2191,  0.0675
1492035351.3113849163,1492035351.3136799335, -0.3146, -0.1654, -0.0481,  0.3015,  0.2191,  0.0675
1492035351.3140509129,1492035351.3163440228, -0.3146, -0.1654, -0.0481,  0.3015,  0.2191,  0.0675
1492035351.3167140484,1492035351.3190090656, -0.3146, -0.1654,  0.0336,  0.1558,  0.1592, -0.0352
1492035351.3193778992,1492035351.3217849731, -0.2840, -0.1578,  0.0336,  0.1558,  0.1592, -0.0352
1492035351.3221619129,1492035351.3245940208, -0.2840, -0.1578,  0.0336,  0.1558,  0.1592, -0.0352
1492035351.3249690533,1492035351.3273959160, -0.2840, -0.1578,  0.0336,  0.1558,  0.1592, -0.0352
1492035351.3278939724,1492035351.3303289413, -0.2840, -0.1578,  0.0336,  0.0189,  0.1685, -0.0326
1492035351.3307039738,1492035351.3331289291, -0.2840, -0.1578,  0.0336,  0.0189,  0.1685, -0.0326
1492035351.3335039616,1492035351.3359229565, -0.2840, -0.1578,  0.0336,  0.0189,  0.1685, -0.0326
1492035351.3363010883,1492035351.3387260437, -0.2840, -0.1578, -0.0054, -0.0960,  0.1419, -0.0247
1492035351.3391029835,1492035351.3415429592, -0.1963, -0.1113, -0.0002, -0.0960,  0.1419, -0.0247
1492035351.3419189453,1492035351.3443379402, -0.1963, -0.1113, -0.0002, -0.0960,  0.1419, -0.0247
1492035351.3447170258,1492035351.3471360207, -0.1963, -0.1113, -0.0002, -0.0960,  0.1419, -0.0247
1492035351.3475120068,1492035351.3499350548, -0.1963, -0.1113, -0.0002, -0.1952,  0.1089, -0.0459
1492035351.3503589630,1492035351.3527870178, -0.1963, -0.1113, -0.0002, -0.1952,  0.1089, -0.0459
1492035351.3531639576,1492035351.3555960655, -0.1963, -0.1113, -0.0002, -0.1952,  0.1089, -0.0459
1492035351.3559749126,1492035351.3583979607, -0.1963, -0.1113, -0.0002, -0.1952,  0.1089, -0.0910
1492035351.3587739468,1492035351.3611791134, -0.1823, -0.0110,  0.0315, -0.2408,  0.0593, -0.0910
1492035351.3615469933,1492035351.3638510704, -0.1823, -0.0110,  0.0315, -0.2408,  0.0593, -0.0910
1492035351.3642210960,1492035351.3665149212, -0.1823, -0.0110,  0.0315, -0.2408,  0.0593, -0.0910
1492035351.3668859005,1492035351.3691859245, -0.1823, -0.0110,  0.0315, -0.2408,  0.0080, -0.1394
1492035351.3695580959,1492035351.3719658852, -0.1823, -0.0110,  0.0315, -0.2239,  0.0080, -0.1394
1492035351.3723440170,1492035351.3747670650, -0.1823, -0.0110,  0.0315, -0.2239,  0.0080, -0.1394
1492035351.3751449585,1492035351.3775720596, -0.1823, -0.0110,  0.0315, -0.2239,  0.0080, -0.1394
1492035351.3779509068,1492035351.3804121017, -0.1118,  0.0510,  0.0609, -0.2327, -0.0217, -0.1877
1492035351.3807880878,1492035351.3832049370, -0.1118,  0.0510,  0.0609, -0.2327, -0.0217, -0.1877
1492035351.3835809231,1492035351.3860120773, -0.1118,  0.0510,  0.0609, -0.2327, -0.0217, -0.1877
1492035351.3863880634,1492035351.3888099194, -0.1118,  0.0510,  0.0609, -0.2327, -0.0217, -0.1877
1492035351.3891859055,1492035351.3916599751, -0.1118,  0.0510,  0.0609, -0.2391, -0.0461, -0.2534
1492035351.3920369148,1492035351.3944671154, -0.1118,  0.0510,  0.0609, -0.2391, -0.0461, -0.2534
1492035351.3948440552,1492035351.3972699642, -0.1118,  0.0510,  0.0609, -0.2391, -0.0461, -0.2534
1492035351.3976480961,1492035351.4000840187, -0.1141,  0.0616,  0.0421, -0.2391, -0.0694, -0.3227
1492035351.4004600048,1492035351.4028809071, -0.1141,  0.0616,  0.0421, -0.2314, -0.0694, -0.3227
1492035351.4032580853,1492035351.4056830406, -0.1141,  0.0616,  0.0421, -0.2314, -0.0694, -0.3227
1492035351.4060590267,1492035351.4084880352, -0.1141,  0.0616,  0.0421, -0.2314, -0.0694, -0.3227
1492035351.4088649750,1492035351.4112370014, -0.1141,  0.0616,  0.0421, -0.2228, -0.0926, -0.3867
1492035351.4116048813,1492035351.4139089584, -0.1141,  0.0616,  0.0421, -0.2228, -0.0926, -0.3867
1492035351.4142789841,1492035351.4165740013, -0.1141,  0.0616,  0.0421, -0.2228, -0.0926, -0.3867
1492035351.4169418812,1492035351.4192359447, -0.1032,  0.0894,  0.0550, -0.2228, -0.0926, -0.3867
1492035351.4196040630,1492035351.4220740795, -0.1032,  0.0894,  0.0550, -0.2004, -0.1139, -0.4536
1492035351.4224529266,1492035351.4248769283, -0.1032,  0.0894,  0.0550, -0.2004, -0.1139, -0.4536
1492035351.4252541065,1492035351.4276709557, -0.1032,  0.0894,  0.0550, -0.2004, -0.1139, -0.4536
1492035351.4280478954,1492035351.4304950237, -0.1032,  0.0894,  0.0550, -0.2004, -0.1139, -0.5159
1492035351.4308719635,1492035351.4332950115, -0.1032,  0.0894,  0.0550, -0.1642, -0.1359, -0.5159
1492035351.4336719513,1492035351.4361000061, -0.1032,  0.0894,  0.0550, -0.1642, -0.1359, -0.5159
1492035351.4364778996,1492035351.4388968945, -0.1375,  0.0789,  0.0602, -0.1642, -0.1359, -0.5159
1492035351.4392709732,1492035351.4416220188, -0.1375,  0.0789,  0.0602, -0.1318, -0.1628, -0.5633
1492035351.4420919418,1492035351.4443979263, -0.1375,  0.0789,  0.0602, -0.1318, -0.1628, -0.5633
1492035351.4447669983,1492035351.4470651150, -0.1375,  0.0789,  0.0602, -0.1318, -0.1628, -0.5633
1492035351.4474339485,1492035351.4497311115, -0.1375,  0.0789,  0.0602, -0.1318, -0.1628, -0.5633
1492035351.4500880241,1492035351.4525148869, -0.1375,  0.0789,  0.0602, -0.0995, -0.1881, -0.6015
1492035351.4528911114,1492035351.4553129673, -0.1375,  0.0789,  0.0602, -0.0995, -0.1881, -0.6015
1492035351.4556899071,1492035351.4581179619, -0.1375,  0.0789,  0.0740, -0.0995, -0.1881, -0.6015
1492035351.4584949017,1492035351.4608950615, -0.1526,  0.0808,  0.0740, -0.0995, -0.1881, -0.6015
1492035351.4612650871,1492035351.4635639191, -0.1526,  0.0808,  0.0740, -0.0730, -0.2182, -0.6291
1492035351.4639329910,1492035351.4662399292, -0.1526,  0.0808,  0.0740, -0.0730, -0.2182, -0.6291
1492035351.4666109085,1492035351.4689040184, -0.1526,  0.0808,  0.0740, -0.0730, -0.2182, -0.6291
1492035351.4692740440,1492035351.4716839790, -0.1526,  0.0808,  0.0740, -0.0730, -0.2182, -0.6452
1492035351.4720590115,1492035351.4744870663, -0.1526,  0.0808,  0.0740, -0.0516, -0.2561, -0.6452
1492035351.4748620987,1492035351.4772870541, -0.1526,  0.0808,  0.0740, -0.0516, -0.2561, -0.6452
1492035351.4776659012,1492035351.4801039696, -0.1850,  0.0674,  0.0804, -0.0516, -0.2561, -0.6452
1492035351.4804780483,1492035351.4829039574, -0.1850,  0.0674,  0.0804, -0.0299, -0.2938, -0.6500
1492035351.4832799435,1492035351.4857039452, -0.1850,  0.0674,  0.0804, -0.0299, -0.2938, -0.6500
1492035351.4860820770,1492035351.4885089397, -0.1850,  0.0674,  0.0804, -0.0299, -0.2938, -0.6500
1492035351.4888849258,1492035351.4913189411, -0.1850,  0.0674,  0.0804, -0.0299, -0.2938, -0.6500
1492035351.4916939735,1492035351.4941139221, -0.1850,  0.0674,  0.0804, -0.0067, -0.3277, -0.6462
1492035351.4944920540,1492035351.4969229698, -0.1850,  0.0674,  0.0804, -0.0067, -0.3277, -0.6462
1492035351.4973020554,1492035351.4997270107, -0.2430,  0.1125,  0.0362, -0.0067, -0.3277, -0.6462
1492035351.5001120567,1492035351.5025460720, -0.2430,  0.1125,  0.0362, -0.0067, -0.3277, -0.6419
1492035351.5029230118,1492035351.5053489208, -0.2430,  0.1125,  0.0362,  0.0211, -0.3542, -0.6419
1492035351.5057270527,1492035351.5081510544, -0.2430,  0.1125,  0.0362,  0.0211, -0.3542, -0.6419
1492035351.5085270405,1492035351.5109150410, -0.2430,  0.1125,  0.0362,  0.0211, -0.3542, -0.6419
1492035351.5112841129,1492035351.5135819912, -0.2430,  0.1125,  0.0362,  0.0318, -0.3770, -0.6359
1492035351.5139520168,1492035351.5162529945, -0.2430,  0.1125,  0.0362,  0.0318, -0.3770, -0.6359
1492035351.5166220665,1492035351.5189230442, -0.3151,  0.1215,  0.0007,  0.0318, -0.3770, -0.6359
1492035351.5192949772,1492035351.5217039585, -0.3151,  0.1215,  0.0007,  0.0318, -0.3770, -0.6359
1492035351.5220808983,1492035351.5245139599, -0.3151,  0.1215,  0.0007,  0.0243, -0.3916, -0.6227
1492035351.5248899460,1492035351.5273089409, -0.3151,  0.1215,  0.0007,  0.0243, -0.3916, -0.6227
1492035351.5276861191,1492035351.5301198959, -0.3151,  0.1215,  0.0007,  0.0243, -0.3916, -0.6227
1492035351.5304970741,1492035351.5329270363, -0.3151,  0.1215,  0.0007,  0.0243, -0.3916, -0.6227
1492035351.5333030224,1492035351.5357289314, -0.3151,  0.1215,  0.0007,  0.0121, -0.3878, -0.5913
1492035351.5361049175,1492035351.5386319160, -0.4088,  0.1899, -0.0800,  0.0121, -0.3878, -0.5913
1492035351.5390110016,1492035351.5414509773, -0.4088,  0.1899, -0.0800,  0.0121, -0.3878, -0.5913
1492035351.5418250561,1492035351.5442140102, -0.4088,  0.1899, -0.0800,  0.0121, -0.3549, -0.5301
1492035351.5445890427,1492035351.5469849110, -0.4088,  0.1899, -0.0800,  0.0124, -0.3549, -0.5301
1492035351.5473599434,1492035351.5498490334, -0.4088,  0.1899, -0.0800,  0.0124, -0.3549, -0.5301
1492035351.5502319336,1492035351.5526208878, -0.4088,  0.1899, -0.0800,  0.0124, -0.3549, -0.5301
1492035351.5529971123,1492035351.5553920269, -0.4088,  0.1899, -0.0800,  0.0028, -0.2997, -0.4404
1492035351.5557680130,1492035351.5582270622, -0.4213,  0.3554, -0.1523,  0.0028, -0.2997, -0.4404
1492035351.5587129593,1492035351.5610909462, -0.4213,  0.3554, -0.1523,  0.0028, -0.2997, -0.4404
1492035351.5614600182,1492035351.5637640953, -0.4213,  0.3554, -0.1523,  0.0028, -0.2997, -0.4404
1492035351.5641329288,1492035351.5664279461, -0.4213,  0.3554, -0.1523, -0.0161, -0.2248, -0.3506
1492035351.5667970181,1492035351.5691869259, -0.4213,  0.3554, -0.1523, -0.0161, -0.2248, -0.3506
1492035351.5695559978,1492035351.5718541145, -0.4213,  0.3554, -0.1523, -0.0161, -0.2248, -0.3506
1492035351.5722219944,1492035351.5745139122, -0.4213,  0.3554, -0.1523, -0.0161, -0.2248, -0.2784
1492035351.5748829842,1492035351.5771830082, -0.4213,  0.4255, -0.1817, -0.0049, -0.1497, -0.2784
1492035351.5775508881,1492035351.5799250603, -0.2996,  0.4255, -0.1817, -0.0049, -0.1497, -0.2784
1492035351.5803771019,1492035351.5827620029, -0.2996,  0.4255, -0.1817, -0.0049, -0.1497, -0.2784
1492035351.5831370354,1492035351.5855340958, -0.2996,  0.4255, -0.1817,  0.0108, -0.1093, -0.2214
1492035351.5859088898,1492035351.5882949829, -0.2996,  0.4255, -0.1817,  0.0114, -0.1093, -0.2214
1492035351.5886681080,1492035351.5910890102, -0.2996,  0.4255, -0.1817,  0.0114, -0.1093, -0.2214
1492035351.5914649963,1492035351.5938589573, -0.2996,  0.4255, -0.1817,  0.0114, -0.1093, -0.2214
1492035351.5942339897,1492035351.5966200829, -0.2996,  0.4255, -0.1625,  0.0205, -0.0717, -0.1453
1492035351.5969951153,1492035351.5994269848, -0.2095,  0.4406, -0.1625,  0.0205, -0.0717, -0.1453
1492035351.5998039246,1492035351.6022419930, -0.2095,  0.4406, -0.1625,  0.0205, -0.0717, -0.1453
1492035351.6026170254,1492035351.6050429344, -0.2095,  0.4406, -0.1625,  0.0205, -0.0717, -0.1453
1492035351.6054189205,1492035351.6078400612, -0.2095,  0.4406, -0.1625,  0.0273, -0.0180, -0.0490
1492035351.6082160473,1492035351.6106190681, -0.2095,  0.4406, -0.1625,  0.0273, -0.0180, -0.0490
1492035351.6109879017,1492035351.6132950783, -0.2095,  0.4406, -0.1625,  0.0273, -0.0180, -0.0490
1492035351.6136629581,1492035351.6159570217, -0.2095,  0.4406, -0.1703,  0.0273,  0.0210,  0.0164
1492035351.6163239479,1492035351.6186239719, -0.1123,  0.3917, -0.1694,  0.0650,  0.0175,  0.0164
1492035351.6189908981,1492035351.6213679314, -0.1123,  0.3917, -0.1694,  0.0650,  0.0175,  0.0164
1492035351.6217451096,1492035351.6241660118, -0.1123,  0.3917, -0.1694,  0.0650,  0.0175,  0.0164
1492035351.6245419979,1492035351.6269619465, -0.1123,  0.3917, -0.1694,  0.1210,  0.0265,  0.0555
1492035351.6273379326,1492035351.6297659874, -0.1123,  0.3917, -0.1694,  0.1210,  0.0265,  0.0555
1492035351.6301519871,1492035351.6325809956, -0.1123,  0.3917, -0.1694,  0.1210,  0.0265,  0.0555
1492035351.6329569817,1492035351.6353859901, -0.1123,  0.3917, -0.1694,  0.1210,  0.0265,  0.0555
1492035351.6357619762,1492035351.6381900311, -0.1208,  0.2697, -0.1883,  0.1526,  0.0575,  0.0995
1492035351.6385669708,1492035351.6410369873, -0.1208,  0.2697, -0.1883,  0.1526,  0.0575,  0.0995
1492035351.6414160728,1492035351.6438438892, -0.1208,  0.2697, -0.1883,  0.1526,  0.0575,  0.0995
1492035351.6442189217,1492035351.6466450691, -0.1208,  0.2697, -0.1883,  0.1526,  0.0575,  0.1088
1492035351.6470210552,1492035351.6494450569, -0.1208,  0.2697, -0.1883,  0.1674,  0.0542,  0.1088
1492035351.6498239040,1492035351.6522629261, -0.1208,  0.2697, -0.1883,  0.1674,  0.0542,  0.1088
1492035351.6526389122,1492035351.6550669670, -0.1208,  0.2697, -0.1883,  0.1674,  0.0542,  0.1088
1492035351.6554439068,1492035351.6578729153, -0.0794,  0.0890, -0.2695,  0.1328,  0.1446,  0.1409
1492035351.6582500935,1492035351.6606540680, -0.0794,  0.0890, -0.2695,  0.1328,  0.1446,  0.1409
1492035351.6610240936,1492035351.6633191109, -0.0794,  0.0890, -0.2695,  0.1328,  0.1446,  0.1409
1492035351.6636879444,1492035351.6659860611, -0.0794,  0.0890, -0.2695,  0.1328,  0.1446,  0.1409
1492035351.6663539410,1492035351.6686539650, -0.0794,  0.0890, -0.2695,  0.0299,  0.1588,  0.2276
1492035351.6690220833,1492035351.6714560986, -0.0794,  0.0890, -0.2695,  0.0299,  0.1588,  0.2276
1492035351.6718320847,1492035351.6742610931, -0.0794,  0.0890, -0.2695,  0.0299,  0.1588,  0.2276
1492035351.6747450829,1492035351.6771719456, -0.2299,  0.2188,  0.2711,  0.0299,  0.1588,  0.3058
1492035351.6775460243,1492035351.6799681187, -0.2299,  0.2188,  0.2711, -0.0429, -0.0226,  0.3124
1492035351.6803939342,1492035351.6828238964, -0.2299,  0.2188,  0.2711, -0.0429, -0.0226,  0.3124
1492035351.6831989288,1492035351.6856238842, -0.2299,  0.2188,  0.2711, -0.0429, -0.0226,  0.3124
1492035351.6860001087,1492035351.6884310246, -0.2299,  0.2188,  0.2711, -0.2382, -0.2384,  0.4081
1492035351.6888079643,1492035351.6912350655, -0.2299,  0.2188,  0.2711, -0.2391, -0.2384,  0.4081
1492035351.6916100979,1492035351.6940269470, -0.2299,  0.2188,  0.2711, -0.2391, -0.2384,  0.4081
1492035351.6944019794,1492035351.6968300343, -0.8128, -0.1105,  0.1817, -0.2391, -0.2384,  0.4081
1492035351.6972050667,1492035351.6996290684, -0.8128, -0.1105,  0.1817, -0.1412,  0.0118,  0.2572
1492035351.7000141144,1492035351.7024400234, -0.8128, -0.1105,  0.1817, -0.1412,  0.0118,  0.2572
1492035351.7028169632,1492035351.7052431107, -0.8128, -0.1105,  0.1817, -0.1412,  0.0118,  0.2572
1492035351.7056179047,1492035351.7080430984, -0.8128, -0.1105,  0.1817, -0.1412,  0.0118,  0.3119
1492035351.7084200382,1492035351.7108159065, -0.8128, -0.1105,  0.1817,  0.0784,  0.1557,  0.3120
1492035351.7111849785,1492035351.7134840488, -0.8128, -0.1105,  0.1817,  0.0784,  0.1557,  0.3120
1492035351.7138528824,1492035351.7161459923, -0.2542,  0.4577, -0.2312,  0.0784,  0.1557,  0.3120
1492035351.7165141106,1492035351.7188150883, -0.2542,  0.4577, -0.2312,  0.0784,  0.1479,  0.8020
1492035351.7191839218,1492035351.7215700150, -0.2542,  0.4577, -0.2312, -0.0580,  0.1458,  0.8020
1492035351.7219500542,1492035351.7243790627, -0.2542,  0.4577, -0.2312, -0.0580,  0.1458,  0.8020
1492035351.7247550488,1492035351.7271749973, -0.2542,  0.4577, -0.2312, -0.0580,  0.1458,  0.8020
1492035351.7275509834,1492035351.7299718857, -0.2542,  0.4577, -0.2312, -0.1536,  0.3785,  0.7477
1492035351.7303900719,1492035351.7328190804, -0.2542,  0.4577, -0.2312, -0.1536,  0.3785,  0.7477
1492035351.7331941128,1492035351.7356140614, -0.2542,  0.1825, -0.1758, -0.1536,  0.3785,  0.7477
1492035351.7359910011,1492035351.7384159565,  0.0752,  0.1825, -0.1758, -0.1536,  0.3785,  0.7477
1492035351.7387900352,1492035351.7412250042,  0.0752,  0.1825, -0.1758,  0.1799,  0.1542,  0.3625
1492035351.7415990829,1492035351.7440209389,  0.0752,  0.1825, -0.1758,  0.1799,  0.1542,  0.3625
1492035351.7443969250,1492035351.7468230724,  0.0752,  0.1825, -0.1758,  0.1799,  0.1542,  0.3625
1492035351.7471990585,1492035351.7496240139,  0.0752,  0.1825, -0.1758,  0.1799,  0.1542,  0.1566
1492035351.7500059605,1492035351.7524280548,  0.0752,  0.1825, -0.1758,  0.2155, -0.1953,  0.1566
1492035351.7528030872,1492035351.7552359104,  0.0752,  0.0340, -0.0066,  0.2155, -0.1953,  0.1566
1492035351.7556130886,1492035351.7580339909, -0.1883,  0.0324, -0.0066,  0.2155, -0.1953,  0.1566
1492035351.7584118843,1492035351.7607979774, -0.1883,  0.0324, -0.0066,  0.2159, -0.1212,  0.0071
1492035351.7611680031,1492035351.7634680271, -0.1883,  0.0324, -0.0066,  0.2159, -0.1212,  0.0071
1492035351.7638380527,1492035351.7661359310, -0.1883,  0.0324, -0.0066,  0.2159, -0.1212,  0.0071
1492035351.7665059566,1492035351.7688078880, -0.1883,  0.0324, -0.0066,  0.2159, -0.1212,  0.0071
1492035351.7691791058,1492035351.7715630531, -0.1883,  0.0324, -0.0066,  0.1566,  0.0136,  0.1106
1492035351.7719399929,1492035351.7743639946, -0.1883,  0.0324, -0.0066,  0.1566,  0.0136,  0.1106
1492035351.7747409344,1492035351.7771639824, -0.2079,  0.0393,  0.0224,  0.1566,  0.0136,  0.1106
1492035351.7775399685,1492035351.7799580097, -0.2079,  0.0393,  0.0224,  0.1566,  0.0136,  0.1106
1492035351.7804019451,1492035351.7828240395, -0.2079,  0.0393,  0.0224,  0.1552,  0.0789,  0.1954
1492035351.7831990719,1492035351.7856309414, -0.2079,  0.0393,  0.0224,  0.1552,  0.0789,  0.1954
1492035351.7860069275,1492035351.7884299755, -0.2079,  0.0393,  0.0224,  0.1552,  0.0789,  0.1954
1492035351.7888081074,1492035351.7912499905, -0.2079,  0.0393,  0.0224,  0.1474,  0.0795,  0.1760
1492035351.7917308807,1492035351.7941560745, -0.2079,  0.0393,  0.0224,  0.1432,  0.0795,  0.1760
1492035351.7945311069,1492035351.7969539165, -0.2135,  0.1304, -0.0049,  0.1432,  0.0795,  0.1760
1492035351.7973320484,1492035351.7997601032, -0.2135,  0.1304, -0.0049,  0.1432,  0.0795,  0.1760
1492035351.8001461029,1492035351.8025729656, -0.2135,  0.1304, -0.0049,  0.1713,  0.1232,  0.1420
1492035351.8029499054,1492035351.8053719997, -0.2135,  0.1304, -0.0049,  0.1713,  0.1232,  0.1420
1492035351.8057489395,1492035351.8081750870, -0.2135,  0.1304, -0.0049,  0.1713,  0.1232,  0.1420
1492035351.8085510731,1492035351.8109860420, -0.2135,  0.1304, -0.0049,  0.1713,  0.1232,  0.1030
1492035351.8113560677,1492035351.8136599064, -0.2135,  0.1304, -0.0049,  0.2174,  0.1994,  0.1024
1492035351.8140270710,1492035351.8163259029, -0.1956,  0.0723,  0.0991,  0.2174,  0.1994,  0.1024
1492035351.8166940212,1492035351.8189918995, -0.1956,  0.0723,  0.0991,  0.2174,  0.1994,  0.1024
1492035351.8193631172,1492035351.8216691017, -0.1956,  0.0723,  0.0991,  0.2174,  0.1994,  0.0994
1492035351.8220388889,1492035351.8243319988, -0.1956,  0.0723,  0.0991,  0.1573,  0.1058,  0.0994
1492035351.8247010708,1492035351.8269960880, -0.1956,  0.0723,  0.0991,  0.1573,  0.1058,  0.0994
1492035351.8273649216,1492035351.8296680450, -0.1956,  0.0723,  0.0991,  0.1573,  0.1058,  0.0994
1492035351.8300449848,1492035351.8324611187, -0.1956,  0.0723,  0.0991,  0.1495,  0.1009,  0.0820
1492035351.8328390121,1492035351.8352649212, -0.2340,  0.1285,  0.0383,  0.1554,  0.1009,  0.0820
1492035351.8356430531,1492035351.8380661011, -0.2340,  0.1285,  0.0383,  0.1554,  0.1009,  0.0820
1492035351.8384430408,1492035351.8408830166, -0.2340,  0.1285,  0.0383,  0.1554,  0.1009,  0.0820
1492035351.8412590027,1492035351.8436849117, -0.2340,  0.1285,  0.0383,  0.1682,  0.1152,  0.0594
1492035351.8440599442,1492035351.8464810848, -0.2340,  0.1285,  0.0383,  0.1682,  0.1152,  0.0594
1492035351.8468589783,1492035351.8492848873, -0.2340,  0.1285,  0.0383,  0.1682,  0.1152,  0.0594
1492035351.8496611118,1492035351.8520960808, -0.2340,  0.1285,  0.0383,  0.1682,  0.1152,  0.0125
1492035351.8524720669,1492035351.8548920155, -0.3590,  0.0461,  0.0468,  0.1707,  0.1101,  0.0141
1492035351.8552689552,1492035351.8576989174, -0.3592,  0.0461,  0.0468,  0.1707,  0.1101,  0.0141
1492035351.8580739498,1492035351.8604879379, -0.3592,  0.0461,  0.0468,  0.1707,  0.1101,  0.0141
1492035351.8608570099,1492035351.8631539345, -0.3592,  0.0461,  0.0468,  0.1707,  0.0832, -0.0767
1492035351.8635230064,1492035351.8658280373, -0.3592,  0.0461,  0.0468,  0.1504,  0.0832, -0.0767
1492035351.8661971092,1492035351.8684930801, -0.3592,  0.0461,  0.0468,  0.1504,  0.0832, -0.0767
1492035351.8688619137,1492035351.8712620735, -0.3592,  0.0461,  0.0468,  0.1504,  0.0832, -0.0767
1492035351.8716371059,1492035351.8740699291, -0.3592,  0.0461,  0.0696,  0.1172,  0.1031, -0.0435
1492035351.8744471073,1492035351.8768720627, -0.4255, -0.0058,  0.0696,  0.1172,  0.1031, -0.0435
1492035351.8772499561,1492035351.8796761036, -0.4255, -0.0058,  0.0696,  0.1172,  0.1031, -0.0435
1492035351.8800630569,1492035351.8824920654, -0.4255, -0.0058,  0.0696,  0.1172,  0.1031, -0.0435
1492035351.8828709126,1492035351.8852899075, -0.4255, -0.0058,  0.0696,  0.0599,  0.1242,  0.0404
1492035351.8856670856,1492035351.8880989552, -0.4255, -0.0058,  0.0696,  0.0599,  0.1242,  0.0404
1492035351.8884770870,1492035351.8909189701, -0.4255, -0.0058,  0.0696,  0.0599,  0.1242,  0.0404
1492035351.8912971020,1492035351.8937230110, -0.4255, -0.0058,  0.1219,  0.0599,  0.1242,  0.0640
1492035351.8941009045,1492035351.8965361118, -0.2827, -0.0942,  0.1219,  0.0230,  0.1100,  0.0640
1492035351.8969140053,1492035351.8993339539, -0.2827, -0.0942,  0.1219,  0.0230,  0.1100,  0.0640
1492035351.8997099400,1492035351.9021489620, -0.2827, -0.0942,  0.1219,  0.0230,  0.1100,  0.0640
1492035351.9025270939,1492035351.9049530029, -0.2827, -0.0942,  0.1219,  0.0349,  0.0807,  0.0675
1492035351.9053299427,1492035351.9077498913, -0.2827, -0.0942,  0.1219,  0.0349,  0.0807,  0.0675
1492035351.9082350731,1492035351.9106459618, -0.2827, -0.0942,  0.1219,  0.0349,  0.0807,  0.0675
1492035351.9110159874,1492035351.9133129120, -0.2827, -0.0942,  0.1298,  0.0349,  0.0807,  0.0675
1492035351.9136819839,1492035351.9159810543, -0.2045, -0.0999,  0.1316,  0.0696,  0.0720,  0.0791
1492035351.9163498878,1492035351.9186549187, -0.2045, -0.0999,  0.1316,  0.0696,  0.0720,  0.0791
1492035351.9190249443,1492035351.9214680195, -0.2045, -0.0999,  0.1316,  0.0696,  0.0720,  0.0791
1492035351.9218471050,1492035351.9242730141, -0.2045, -0.0999,  0.1316,  0.0696,  0.0720,  0.0401
1492035351.9246490002,1492035351.9270720482, -0.2045, -0.0999,  0.1316,  0.1172,  0.0488,  0.0451
1492035351.9274480343,1492035351.9298720360, -0.2045, -0.0999,  0.1316,  0.1172,  0.0488,  0.0451
1492035351.9302549362,1492035351.9326870441, -0.2045, -0.0999,  0.1316,  0.1172,  0.0488,  0.0451
1492035351.9330639839,1492035351.9354910851, -0.2400,  0.0172,  0.0632,  0.1848,  0.0127,  0.0141
1492035351.9358649254,1492035351.9382870197, -0.2400,  0.0172,  0.0632,  0.1848,  0.0127,  0.0141
1492035351.9386620522,1492035351.9410490990, -0.2400,  0.0172,  0.0632,  0.1848,  0.0127,  0.0141
1492035351.9414200783,1492035351.9437179565, -0.2400,  0.0172,  0.0632,  0.1848,  0.0127,  0.0141
1492035351.9440848827,1492035351.9463870525, -0.2400,  0.0172,  0.0632,  0.1808,  0.0283,  0.0334
1492035351.9467539787,1492035351.9490499496, -0.2400,  0.0172,  0.0632,  0.1808,  0.0283,  0.0334
1492035351.9494159222,1492035351.9518599510, -0.2400,  0.0172,  0.0632,  0.1808,  0.0283,  0.0334
1492035351.9522368908,1492035351.9546599388, -0.2303,  0.1442, -0.1170,  0.1808,  0.0283,  0.0334
1492035351.9550371170,1492035351.9574561119, -0.2303,  0.1442, -0.1170,  0.1813,  0.1411,  0.0708
1492035351.9578320980,1492035351.9602499008, -0.2303,  0.1442, -0.1170,  0.1813,  0.1411,  0.0708
1492035351.9606180191,1492035351.9629240036, -0.2303,  0.1442, -0.1170,  0.1813,  0.1411,  0.0708
1492035351.9632959366,1492035351.9655940533, -0.2303,  0.1442, -0.1170,  0.1813,  0.1411,  0.1531
1492035351.9659640789,1492035351.9682650566, -0.2303,  0.1442, -0.1170, -0.0002,  0.1579,  0.1531
1492035351.9686350822,1492035351.9710359573, -0.2303,  0.1442, -0.1170, -0.0002,  0.1579,  0.1531
1492035351.9714119434,1492035351.9738280773, -0.1834,  0.0223,  0.0918, -0.0002,  0.1579,  0.1531
1492035351.9742031097,1492035351.9766149521, -0.1855,  0.0223,  0.0918,  0.0360,  0.1971,  0.1910
1492035351.9769909382,1492035351.9793989658, -0.1855,  0.0223,  0.0918,  0.0360,  0.1971,  0.1910
1492035351.9797730446,1492035351.9822690487, -0.1855,  0.0223,  0.0918,  0.0360,  0.1971,  0.1910
1492035351.9826428890,1492035351.9850349426, -0.1855,  0.0223,  0.0918,  0.0360,  0.1971,  0.1910
1492035351.9854099751,1492035351.9877960682, -0.1855,  0.0223,  0.0918,  0.0571,  0.2148,  0.2154
1492035351.9881699085,1492035351.9905750751, -0.1855,  0.0223,  0.0918,  0.0571,  0.2148,  0.2154
1492035351.9909501076,1492035351.9933750629, -0.1855, -0.1479,  0.0612,  0.0571,  0.2148,  0.2154
1492035351.9937500954,1492035351.9961740971, -0.1956, -0.1479,  0.0612,  0.0571,  0.2148,  0.2467
1492035351.9965488911,1492035351.9989790916, -0.1956, -0.1479,  0.0612,  0.0404,  0.2171,  0.2500
1492035351.9993569851,1492035352.0017330647, -0.1956, -0.1479,  0.0612,  0.0404,  0.2171,  0.2500
1492035352.0021030903,1492035352.0043990612, -0.1956, -0.1479,  0.0612,  0.0404,  0.2171,  0.2500
1492035352.0047690868,1492035352.0070760250, -0.1956, -0.1479,  0.0612,  0.0404,  0.2191,  0.3243
1492035352.0074460506,1492035352.0097401142, -0.1956, -0.1479,  0.0612,  0.0239,  0.2191,  0.3243
1492035352.0101139545,1492035352.0125420094, -0.1956, -0.1479, -0.0247,  0.0239,  0.2191,  0.3243
1492035352.0129199028,1492035352.0153379440, -0.2537,  0.0020, -0.0257,  0.0239,  0.2191,  0.3243
1492035352.0157148838,1492035352.0181341171, -0.2537,  0.0020, -0.0257, -0.0245,  0.2425,  0.3658
1492035352.0185101032,1492035352.0209469795, -0.2537,  0.0020, -0.0257, -0.0245,  0.2425,  0.3658
1492035352.0214281082,1492035352.0238480568, -0.2537,  0.0020, -0.0257, -0.0245,  0.2425,  0.3658
1492035352.0242240429,1492035352.0266470909, -0.2537,  0.0020, -0.0257, -0.0245,  0.2425,  0.3658
1492035352.0270240307,1492035352.0294539928, -0.2537,  0.0020, -0.0257, -0.1230,  0.2638,  0.3982
1492035352.0298330784,1492035352.0322649479, -0.2537,  0.0020,  0.1071, -0.1230,  0.2638,  0.3982
1492035352.0326409340,1492035352.0350699425, -0.2602, -0.0641,  0.1084, -0.1230,  0.2638,  0.3982
1492035352.0354490280,1492035352.0378708839, -0.2602, -0.0641,  0.1084, -0.1230,  0.2716,  0.3991
1492035352.0382471085,1492035352.0406498909, -0.2602, -0.0641,  0.1084, -0.1048,  0.2706,  0.3991
1492035352.0410211086,1492035352.0433249474, -0.2602, -0.0641,  0.1084, -0.1048,  0.2706,  0.3991
1492035352.0436940193,1492035352.0459918976, -0.2602, -0.0641,  0.1084, -0.1048,  0.2706,  0.3991
1492035352.0463609695,1492035352.0486559868, -0.2602, -0.0641,  0.1084, -0.0118,  0.2825,  0.3764
1492035352.0490241051,1492035352.0514779091, -0.2602, -0.0641,  0.1084, -0.0118,  0.2825,  0.3764
1492035352.0518538952,1492035352.0542790890, -0.2965, -0.1142,  0.0841, -0.0118,  0.2825,  0.3764
1492035352.0546569824,1492035352.0570850372, -0.2965, -0.1142,  0.0841, -0.0118,  0.2825,  0.3764
1492035352.0574638844,1492035352.0598900318, -0.2965, -0.1142,  0.0841,  0.0713,  0.2876,  0.3504
1492035352.0602719784,1492035352.0626990795, -0.2965, -0.1142,  0.0841,  0.0713,  0.2876,  0.3504
1492035352.0630769730,1492035352.0655028820, -0.2965, -0.1142,  0.0841,  0.0713,  0.2876,  0.3504
1492035352.0658810139,1492035352.0683050156, -0.2965, -0.1142,  0.0841,  0.0713,  0.2876,  0.3270
1492035352.0686810017,1492035352.0711090565, -0.2965, -0.1142,  0.0841,  0.1410,  0.2908,  0.3234
1492035352.0714850426,1492035352.0739169121, -0.2373, -0.0550,  0.0666,  0.1410,  0.2908,  0.3234
1492035352.0742950439,1492035352.0767140388, -0.2373, -0.0550,  0.0666,  0.1410,  0.2908,  0.3234
1492035352.0770890713,1492035352.0795209408, -0.2373, -0.0550,  0.0666,  0.2018,  0.2852,  0.3032
1492035352.0798959732,1492035352.0823359489, -0.2373, -0.0550,  0.0666,  0.2018,  0.2852,  0.3032
1492035352.0827109814,1492035352.0851380825, -0.2373, -0.0550,  0.0666,  0.2018,  0.2852,  0.3032
1492035352.0855159760,1492035352.0879468918, -0.2373, -0.0550,  0.0666,  0.2018,  0.2852,  0.3032
1492035352.0883219242,1492035352.0907089710, -0.2373, -0.0550,  0.0666,  0.2424,  0.2909,  0.2642
1492035352.0910780430,1492035352.0933780670, -0.2914, -0.0953,  0.0255,  0.2424,  0.2909,  0.2642
1492035352.0937469006,1492035352.0960519314, -0.2914, -0.0953,  0.0255,  0.2424,  0.2909,  0.2642
1492035352.0964219570,1492035352.0987150669, -0.2914, -0.0953,  0.0255,  0.2424,  0.2909,  0.2642
1492035352.0990829468,1492035352.1014850140, -0.2914, -0.0953,  0.0255,  0.2307,  0.2967,  0.2011
1492035352.1018619537,1492035352.1042799950, -0.2914, -0.0953,  0.0255,  0.2307,  0.2967,  0.2011
1492035352.1046559811,1492035352.1070790291, -0.2914, -0.0953,  0.0255,  0.2307,  0.2967,  0.2011
1492035352.1074581146,1492035352.1098821163, -0.2914, -0.0953,  0.0255,  0.2307,  0.2810,  0.1290
1492035352.1102581024,1492035352.1126790047, -0.2522, -0.1138,  0.0422,  0.1581,  0.2755,  0.1290
1492035352.1130549908,1492035352.1154808998, -0.2522, -0.1138,  0.0422,  0.1581,  0.2755,  0.1290
1492035352.1158590317,1492035352.1182870865, -0.2522, -0.1138,  0.0422,  0.1581,  0.2755,  0.1290
1492035352.1186640263,1492035352.1210970879, -0.2522, -0.1138,  0.0422,  0.0514,  0.2243,  0.0557
1492035352.1214718819,1492035352.1238999367, -0.2522, -0.1138,  0.0422,  0.0514,  0.2243,  0.0557
1492035352.1242749691,1492035352.1266989708, -0.2522, -0.1138,  0.0422,  0.0514,  0.2243,  0.0557
1492035352.1270771027,1492035352.1295049191, -0.2522, -0.1138,  0.0422,  0.0514,  0.2243,  0.0557
1492035352.1298809052,1492035352.1323208809, -0.1506, -0.1309,  0.0423, -0.0610,  0.1624, -0.0104
1492035352.1326959133,1492035352.1351239681, -0.1555, -0.1309,  0.0423, -0.0610,  0.1624, -0.0104
1492035352.1355009079,1492035352.1379239559, -0.1555, -0.1309,  0.0423, -0.0610,  0.1624, -0.0104
1492035352.1384139061,1492035352.1408190727, -0.1555, -0.1309,  0.0423, -0.0610,  0.1390, -0.0528
1492035352.1411859989,1492035352.1434860229, -0.1555, -0.1309,  0.0423, -0.1459,  0.1393, -0.0528
1492035352.1438539028,1492035352.1461551189, -0.1555, -0.1309,  0.0423, -0.1459,  0.1393, -0.0528
1492035352.1465229988,1492035352.1488189697, -0.1555, -0.1309,  0.0423, -0.1459,  0.1393, -0.0528
1492035352.1491870880,1492035352.1515719891, -0.1555, -0.0294,  0.0320, -0.2011,  0.0871, -0.1149
1492035352.1519510746,1492035352.1543800831, -0.1014, -0.0288,  0.0320, -0.2011,  0.0871, -0.1149
1492035352.1547570229,1492035352.1571800709, -0.1014, -0.0288,  0.0320, -0.2011,  0.0871, -0.1149
1492035352.1575579643,1492035352.1600210667, -0.1014, -0.0288,  0.0320, -0.2011,  0.0871, -0.1149
1492035352.1604011059,1492035352.1628320217, -0.1014, -0.0288,  0.0320, -0.2234,  0.0306, -0.1828
1492035352.1632089615,1492035352.1656379700, -0.1014, -0.0288,  0.0320, -0.2234,  0.0306, -0.1828
1492035352.1660170555,1492035352.1684451103, -0.1014, -0.0288,  0.0320, -0.2234,  0.0306, -0.1828
1492035352.1688220501,1492035352.1712779999, -0.1014, -0.0288,  0.0494, -0.2234,  0.0306, -0.2493
1492035352.1716549397,1492035352.1740760803, -0.0451, -0.0064,  0.0494, -0.2357, -0.0284, -0.2493
1492035352.1744539738,1492035352.1768829823, -0.0451, -0.0064,  0.0494, -0.2357, -0.0284, -0.2493
1492035352.1772589684,1492035352.1796839237, -0.0451, -0.0064,  0.0494, -0.2357, -0.0284, -0.2493
1492035352.1800720692,1492035352.1824989319, -0.0451, -0.0064,  0.0494, -0.2312, -0.0780, -0.3279
1492035352.1828770638,1492035352.1853070259, -0.0451, -0.0064,  0.0494, -0.2312, -0.0780, -0.3279
1492035352.1856839657,1492035352.1881139278, -0.0451, -0.0064,  0.0494, -0.2312, -0.0780, -0.3279
1492035352.1884911060,1492035352.1908879280, -0.0451, -0.0064,  0.0416, -0.2312, -0.0780, -0.3279
1492035352.1912579536,1492035352.1935529709, -0.0540,  0.0446,  0.0437, -0.2467, -0.1186, -0.4043
1492035352.1939220428,1492035352.1962189674, -0.0540,  0.0446,  0.0437, -0.2467, -0.1186, -0.4043
1492035352.1965889931,1492035352.1988909245, -0.0540,  0.0446,  0.0437, -0.2467, -0.1186, -0.4043
1492035352.1992599964,1492035352.2016201019, -0.0540,  0.0446,  0.0437, -0.2467, -0.1186, -0.4043
1492035352.2019889355,1492035352.2042860985, -0.0540,  0.0446,  0.0437, -0.2596, -0.1590, -0.4801
1492035352.2046549320,1492035352.2069559097, -0.0540,  0.0446,  0.0437, -0.2596, -0.1590, -0.4801
1492035352.2073259354,1492035352.2096230984, -0.0540,  0.0446,  0.0437, -0.2596, -0.1590, -0.4801
1492035352.2100300789,1492035352.2124629021, -0.1018,  0.0785,  0.0656, -0.2596, -0.1590, -0.5474
1492035352.2128388882,1492035352.2152659893, -0.1018,  0.0785,  0.0656, -0.2529, -0.1943, -0.5474
1492035352.2156429291,1492035352.2180619240, -0.1018,  0.0785,  0.0656, -0.2529, -0.1943, -0.5474
1492035352.2184400558,1492035352.2208750248, -0.1018,  0.0785,  0.0656, -0.2529, -0.1943, -0.5474
1492035352.2212510109,1492035352.2236750126, -0.1018,  0.0785,  0.0656, -0.2107, -0.2207, -0.6053
1492035352.2240519524,1492035352.2264780998, -0.1018,  0.0785,  0.0656, -0.2107, -0.2207, -0.6053
1492035352.2268579006,1492035352.2292890549, -0.1018,  0.0785,  0.0656, -0.2107, -0.2207, -0.6053
1492035352.2296669483,1492035352.2320940495, -0.1457,  0.1249,  0.0797, -0.2107, -0.2207, -0.6053
1492035352.2324700356,1492035352.2348930836, -0.1457,  0.1249,  0.0797, -0.1424, -0.2385, -0.6517
1492035352.2352700233,1492035352.2376899719, -0.1457,  0.1249,  0.0797, -0.1424, -0.2385, -0.6517
1492035352.2380659580,1492035352.2404789925, -0.1457,  0.1249,  0.0797, -0.1424, -0.2385, -0.6517
1492035352.2408480644,1492035352.2431509495, -0.1457,  0.1249,  0.0797, -0.1424, -0.2385, -0.6829
1492035352.2435190678,1492035352.2458150387, -0.1457,  0.1249,  0.0797, -0.0658, -0.2536, -0.6855
1492035352.2461841106,1492035352.2484819889, -0.1457,  0.1249,  0.0797, -0.0658, -0.2536, -0.6855
1492035352.2488529682,1492035352.2512640953, -0.1769,  0.1218,  0.0885, -0.0658, -0.2536, -0.6855
1492035352.2516400814,1492035352.2540669441, -0.1764,  0.1218,  0.0885, -0.0658, -0.2730, -0.7118
1492035352.2545518875,1492035352.2569808960, -0.1764,  0.1218,  0.0885,  0.0082, -0.2730, -0.7118
1492035352.2573599815,1492035352.2597808838, -0.1764,  0.1218,  0.0885,  0.0082, -0.2730, -0.7118
1492035352.2601680756,1492035352.2625930309, -0.1764,  0.1218,  0.0885,  0.0082, -0.2730, -0.7118
1492035352.2629709244,1492035352.2653970718, -0.1764,  0.1218,  0.0885,  0.0636, -0.2993, -0.7224
1492035352.2657730579,1492035352.2681949139, -0.1764,  0.1218,  0.0885,  0.0636, -0.2993, -0.7224
1492035352.2685720921,1492035352.2710409164, -0.2077,  0.0583,  0.0688,  0.0636, -0.2993, -0.7224
1492035352.2714169025,1492035352.2738449574, -0.2093,  0.0583,  0.0688,  0.0636, -0.2993, -0.7224
1492035352.2742199898,1492035352.2766439915, -0.2093,  0.0583,  0.0688,  0.0971, -0.3310, -0.7204
1492035352.2770230770,1492035352.2794559002, -0.2093,  0.0583,  0.0688,  0.0971, -0.3310, -0.7204
1492035352.2798330784,1492035352.2822680473, -0.2093,  0.0583,  0.0688,  0.0971, -0.3310, -0.7204
1492035352.2826440334,1492035352.2850749493, -0.2093,  0.0583,  0.0688,  0.1127, -0.3698, -0.7131
1492035352.2854540348,1492035352.2878890038, -0.2093,  0.0583,  0.0688,  0.1125, -0.3698, -0.7131
1492035352.2882659435,1492035352.2906739712, -0.2093,  0.0314,  0.0291,  0.1125, -0.3698, -0.7131
1492035352.2910449505,1492035352.2933430672, -0.2511,  0.0314,  0.0291,  0.1125, -0.3698, -0.7131
1492035352.2937119007,1492035352.2960140705, -0.2511,  0.0314,  0.0291,  0.1288, -0.4120, -0.6990
1492035352.2963840961,1492035352.2986810207, -0.2511,  0.0314,  0.0291,  0.1288, -0.4120, -0.6990
1492035352.2990500927,1492035352.3014700413, -0.2511,  0.0314,  0.0291,  0.1288, -0.4120, -0.6990
1492035352.3018488884,1492035352.3042740822, -0.2511,  0.0314,  0.0291,  0.1288, -0.4120, -0.6990
1492035352.3046500683,1492035352.3070709705, -0.2511,  0.0314,  0.0291,  0.1130, -0.4469, -0.6672
1492035352.3074479103,1492035352.3098759651, -0.2511,  0.0314, -0.0178,  0.1130, -0.4469, -0.6672
1492035352.3102569580,1492035352.3126831055, -0.3310,  0.0721, -0.0187,  0.1130, -0.4469, -0.6672
1492035352.3130600452,1492035352.3154859543, -0.3310,  0.0721, -0.0187,  0.1130, -0.4469, -0.6288
1492035352.3158640862,1492035352.3182959557, -0.3310,  0.0721, -0.0187,  0.0744, -0.4753, -0.6288
1492035352.3186719418,1492035352.3211100101, -0.3310,  0.0721, -0.0187,  0.0744, -0.4753, -0.6288
1492035352.3214869499,1492035352.3239169121, -0.3310,  0.0721, -0.0187,  0.0744, -0.4753, -0.6288
1492035352.3242919445,1492035352.3267130852, -0.3310,  0.0721, -0.0187,  0.0189, -0.4797, -0.5860
1492035352.3270890713,1492035352.3295109272, -0.3310,  0.0721, -0.0890,  0.0189, -0.4797, -0.5860
1492035352.3298890591,1492035352.3323340416, -0.3974,  0.1753, -0.0871,  0.0189, -0.4797, -0.5860
1492035352.3327100277,1492035352.3351368904, -0.3974,  0.1753, -0.0871,  0.0189, -0.4797, -0.5860
1492035352.3355150223,1492035352.3379418850, -0.3974,  0.1753, -0.0871, -0.0401, -0.4582, -0.5251
1492035352.3383159637,1492035352.3407309055, -0.3974,  0.1753, -0.0871, -0.0401, -0.4582, -0.5251
1492035352.3411009312,1492035352.3434050083, -0.3974,  0.1753, -0.0871, -0.0401, -0.4582, -0.5251
1492035352.3437719345,1492035352.3460719585, -0.3974,  0.1753, -0.0871, -0.0401, -0.4582, -0.4470
1492035352.3464400768,1492035352.3487370014, -0.3974,  0.1753, -0.0871, -0.0849, -0.4052, -0.4473
1492035352.3491060734,1492035352.3515019417, -0.4287,  0.3118, -0.1689, -0.0849, -0.4052, -0.4473
1492035352.3518779278,1492035352.3543090820, -0.4287,  0.3118, -0.1689, -0.0849, -0.4052, -0.4473
1492035352.3546860218,1492035352.3571109772, -0.4287,  0.3118, -0.1689, -0.1162, -0.3224, -0.3743
1492035352.3574860096,1492035352.3599100113, -0.4287,  0.3118, -0.1689, -0.1131, -0.3224, -0.3743
1492035352.3603370190,1492035352.3627638817, -0.4287,  0.3118, -0.1689, -0.1131, -0.3224, -0.3743
1492035352.3631401062,1492035352.3655641079, -0.4287,  0.3118, -0.1689, -0.1131, -0.3224, -0.3743
1492035352.3659400940,1492035352.3683669567, -0.4287,  0.3118, -0.1689, -0.1198, -0.2348, -0.3058
1492035352.3687410355,1492035352.3711719513, -0.3379,  0.4193, -0.1840, -0.1198, -0.2348, -0.3058
1492035352.3716549873,1492035352.3740808964, -0.3379,  0.4193, -0.1840, -0.1198, -0.2348, -0.3058
1492035352.3744580746,1492035352.3768920898, -0.3379,  0.4193, -0.1840, -0.1198, -0.2348, -0.2276
1492035352.3772668839,1492035352.3796930313, -0.3379,  0.4193, -0.1840, -0.0964, -0.1662, -0.2335
1492035352.3800780773,1492035352.3825030327, -0.3379,  0.4193, -0.1840, -0.0964, -0.1662, -0.2335
1492035352.3828821182,1492035352.3853099346, -0.3379,  0.4193, -0.1840, -0.0964, -0.1662, -0.2335
1492035352.3856849670,1492035352.3881099224, -0.3379,  0.4193, -0.1840, -0.0651, -0.0993, -0.1433
1492035352.3884871006,1492035352.3908910751, -0.2358,  0.5015, -0.1763, -0.0674, -0.0993, -0.1433
1492035352.3912589550,1492035352.3935549259, -0.2358,  0.5015, -0.1763, -0.0674, -0.0993, -0.1433
1492035352.3939249516,1492035352.3962159157, -0.2358,  0.5015, -0.1763, -0.0674, -0.0993, -0.1433
1492035352.3965849876,1492035352.3988840580, -0.2358,  0.5015, -0.1763,  0.0094, -0.0291, -0.0793
1492035352.3992519379,1492035352.4016900063, -0.2358,  0.5015, -0.1763,  0.0094, -0.0291, -0.0793
1492035352.4020669460,1492035352.4044890404, -0.2358,  0.5015, -0.1763,  0.0094, -0.0291, -0.0793
1492035352.4048669338,1492035352.4072899818, -0.2358,  0.5015, -0.1763,  0.0094, -0.0291, -0.0793
1492035352.4076659679,1492035352.4100990295, -0.1222,  0.4331, -0.2180,  0.1343, -0.0011, -0.0562
1492035352.4104769230,1492035352.4129049778, -0.1222,  0.4331, -0.2180,  0.1343, -0.0011, -0.0562
1492035352.4132831097,1492035352.4157040119, -0.1222,  0.4331, -0.2180,  0.1343, -0.0011, -0.0562
1492035352.4160840511,1492035352.4185099602, -0.1222,  0.4331, -0.2180,  0.1343,  0.0380, -0.0034
1492035352.4188880920,1492035352.4213340282, -0.1222,  0.4331, -0.2180,  0.2099,  0.0319, -0.0034
1492035352.4217109680,1492035352.4241371155, -0.1222,  0.4331, -0.2180,  0.2099,  0.0319, -0.0034
1492035352.4245169163,1492035352.4269380569, -0.1222,  0.4331, -0.2180,  0.2099,  0.0319, -0.0034
1492035352.4273140430,1492035352.4297471046, -0.1925,  0.2548, -0.3066,  0.2524,  0.0515,  0.0271
1492035352.4301319122,1492035352.4325599670, -0.1891,  0.2548, -0.3066,  0.2524,  0.0515,  0.0271
1492035352.4329359531,1492035352.4353690147, -0.1891,  0.2548, -0.3066,  0.2524,  0.0515,  0.0271
1492035352.4357450008,1492035352.4381690025, -0.1891,  0.2548, -0.3066,  0.2524,  0.0515,  0.0271
1492035352.4385430813,1492035352.4409389496, -0.1891,  0.2548, -0.3066,  0.1664,  0.1978,  0.1455
1492035352.4413070679,1492035352.4436070919, -0.1891,  0.2548, -0.3066,  0.1664,  0.1978,  0.1455
1492035352.4439771175,1492035352.4462718964, -0.1891,  0.2548, -0.3066,  0.1664,  0.1978,  0.1455
1492035352.4466390610,1492035352.4489340782, -0.1891,  0.3642, -0.1425,  0.1664,  0.1978,  0.3095
1492035352.4493019581,1492035352.4516119957, -0.2780,  0.3598, -0.1425, -0.0191,  0.1447,  0.3049
1492035352.4519789219,1492035352.4542779922, -0.2780,  0.3598, -0.1425, -0.0191,  0.1447,  0.3049
1492035352.4546461105,1492035352.4569439888, -0.2780,  0.3598, -0.1425, -0.0191,  0.1447,  0.3049
1492035352.4573130608,1492035352.4596030712, -0.2780,  0.3598, -0.1425, -0.0191,  0.1447,  0.5053
1492035352.4599730968,1492035352.4624381065, -0.2780,  0.3598, -0.1425, -0.1382, -0.0842,  0.5053
1492035352.4628169537,1492035352.4652419090, -0.2780,  0.3598, -0.1425, -0.1382, -0.0842,  0.5053
1492035352.4656178951,1492035352.4680399895, -0.2780,  0.3598, -0.1425, -0.1382, -0.0842,  0.5053
1492035352.4684169292,1492035352.4708530903, -0.7701, -0.0116,  0.7034, -0.3185, -0.2668,  0.4901
1492035352.4712290764,1492035352.4736559391, -0.7701, -0.0116,  0.7034, -0.3185, -0.2668,  0.4901
1492035352.4740319252,1492035352.4764549732, -0.7701, -0.0116,  0.7034, -0.3185, -0.2668,  0.4901
1492035352.4768319130,1492035352.4792580605, -0.7701, -0.0116,  0.7034, -0.3185, -0.2668,  0.4901
1492035352.4796350002,1492035352.4820680618, -0.7701, -0.0116,  0.7034,  0.1268,  0.3128,  0.1312
1492035352.4824459553,1492035352.4848639965, -0.7701, -0.0116,  0.7034,  0.1268,  0.3128,  0.1312
1492035352.4852399826,1492035352.4876689911, -0.7701, -0.0116,  0.7034,  0.1268,  0.3128,  0.1312
1492035352.4881498814,1492035352.4905889034, -0.2546,  0.0679, -0.1903,  0.1268,  0.1565,  0.5373
1492035352.4909579754,1492035352.4932560921, -0.2546,  0.0679, -0.1903, -0.1143,  0.1632,  0.5373
1492035352.4936261177,1492035352.4959309101, -0.2546,  0.0679, -0.1903, -0.1143,  0.1632,  0.5373
1492035352.4962999821,1492035352.4985990524, -0.2546,  0.0679, -0.1903, -0.1143,  0.1632,  0.5373
1492035352.4989690781,1492035352.5013530254, -0.2546,  0.0679, -0.1903, -0.0593,  0.3172,  0.9178
1492035352.5017280579,1492035352.5041549206, -0.2546,  0.0679, -0.1903, -0.0593,  0.3172,  0.9178
1492035352.5045320988,1492035352.5069580078, -0.2546,  0.0679, -0.1903, -0.0593,  0.3172,  0.9178
1492035352.5073339939,1492035352.5097570419,  0.2308,  0.5205, -0.1692, -0.0593,  0.3172,  0.9178
1492035352.5101420879,1492035352.5125639439,  0.2308,  0.5205, -0.1692, -0.0085,  0.4013,  0.6341
1492035352.5129420757,1492035352.5153670311,  0.2308,  0.5205, -0.1692, -0.0085,  0.4013,  0.6341
1492035352.5157449245,1492035352.5181760788,  0.2308,  0.5205, -0.1692, -0.0085,  0.4013,  0.6341
1492035352.5185549259,1492035352.5210220814,  0.2308,  0.5205, -0.1692, -0.0085,  0.4013,  0.2825
1492035352.5213990211,1492035352.5238339901,  0.2308,  0.5205, -0.1692,  0.2225,  0.0053,  0.2868
1492035352.5242109299,1492035352.5266330242,  0.2308,  0.5205, -0.1692,  0.2225,  0.0053,  0.2868
1492035352.5270099640,1492035352.5294311047, -0.1440, -0.0225,  0.0210,  0.2225,  0.0053,  0.2868
1492035352.5298070908,1492035352.5322520733, -0.1440, -0.0225,  0.0210,  0.1919, -0.1830,  0.0932
1492035352.5326259136,1492035352.5350530148, -0.1440, -0.0225,  0.0210,  0.1919, -0.1830,  0.0932
1492035352.5354299545,1492035352.5378611088, -0.1440, -0.0225,  0.0210,  0.1919, -0.1830,  0.0932
1492035352.5382370949,1492035352.5406510830, -0.1440, -0.0225,  0.0210,  0.1919, -0.1830,  0.0932
1492035352.5410211086,1492035352.5433158875, -0.1440, -0.0225,  0.0210,  0.2101, -0.0220, -0.0853
1492035352.5436859131,1492035352.5459918976, -0.1440, -0.0225,  0.0210,  0.2101, -0.0220, -0.0853
1492035352.5463631153,1492035352.5486569405, -0.2437,  0.0603,  0.1824,  0.2101, -0.0220, -0.0853
1492035352.5490279198,1492035352.5514700413, -0.2437,  0.0603,  0.1824,  0.2101, -0.0220, -0.0853
1492035352.5518469810,1492035352.5542719364, -0.2437,  0.0603,  0.1824,  0.2021,  0.0994,  0.1063
1492035352.5546479225,1492035352.5570681095, -0.2437,  0.0603,  0.1824,  0.2021,  0.0994,  0.1063
1492035352.5574450493,1492035352.5598700047, -0.2437,  0.0603,  0.1824,  0.2021,  0.0994,  0.1063
1492035352.5602509975,1492035352.5626869202, -0.2437,  0.0603,  0.1824,  0.2021,  0.1151,  0.1847
1492035352.5630650520,1492035352.5654869080, -0.2437,  0.0603,  0.1824,  0.1748,  0.1120,  0.1847
1492035352.5658640862,1492035352.5682880878, -0.2437,  0.0647, -0.0240,  0.1748,  0.1120,  0.1847
1492035352.5686659813,1492035352.5710480213, -0.2201,  0.0647, -0.0240,  0.1748,  0.1120,  0.1847
1492035352.5714190006,1492035352.5737130642, -0.2201,  0.0647, -0.0240,  0.1402,  0.0755,  0.1579
1492035352.5740799904,1492035352.5763869286, -0.2201,  0.0647, -0.0240,  0.1402,  0.0755,  0.1579
1492035352.5767540932,1492035352.5790479183, -0.2201,  0.0647, -0.0240,  0.1402,  0.0755,  0.1579
1492035352.5794179440,1492035352.5818519592, -0.2201,  0.0647, -0.0240,  0.1402,  0.0755,  0.1579
1492035352.5822279453,1492035352.5846428871, -0.2201,  0.0647, -0.0240,  0.1551,  0.0852,  0.1362
1492035352.5850179195,1492035352.5874230862, -0.2201,  0.0647, -0.0005,  0.1551,  0.0852,  0.1362
1492035352.5877969265,1492035352.5902070999, -0.2723,  0.1252, -0.0005,  0.1551,  0.0852,  0.1362
1492035352.5905780792,1492035352.5928730965, -0.2723,  0.1252, -0.0005,  0.1551,  0.0852,  0.1362
1492035352.5932610035,1492035352.5972061157, -0.2723,  0.1252, -0.0005,  0.1647,  0.0980,  0.1158
1492035352.5975909233,1492035352.5998969078, -0.2723,  0.1252, -0.0005,  0.1647,  0.0980,  0.1158
1492035352.6002659798,1492035352.6025609970, -0.2723,  0.1252, -0.0005,  0.1647,  0.0980,  0.1158
1492035352.6030600071,1492035352.6053569317, -0.2723,  0.1252, -0.0005,  0.1857,  0.1077,  0.0906
1492035352.6057240963,1492035352.6080279350, -0.2778,  0.1161,  0.0433,  0.1857,  0.1077,  0.0906
1492035352.6083979607,1492035352.6107029915, -0.2778,  0.1161,  0.0433,  0.1857,  0.1077,  0.0906
1492035352.6110720634,1492035352.6133759022, -0.2778,  0.1161,  0.0433,  0.1857,  0.1077,  0.0906
1492035352.6137459278,1492035352.6160440445, -0.2778,  0.1161,  0.0433,  0.1817,  0.1156,  0.0569
1492035352.6164131165,1492035352.6187100410, -0.2778,  0.1161,  0.0433,  0.1817,  0.1156,  0.0569
1492035352.6190779209,1492035352.6214249134, -0.2778,  0.1161,  0.0433,  0.1817,  0.1156,  0.0569
1492035352.6217939854,1492035352.6240880489, -0.2778,  0.1161,  0.0433,  0.1817,  0.1156, -0.0090
1492035352.6244590282,1492035352.6267490387, -0.2778,  0.1161,  0.0511,  0.1512,  0.1008, -0.0090
1492035352.6271209717,1492035352.6294209957, -0.3567,  0.0151,  0.0527,  0.1512,  0.1008, -0.0090
1492035352.6297900677,1492035352.6321499348, -0.3567,  0.0151,  0.0527,  0.1512,  0.1008, -0.0090
1492035352.6325199604,1492035352.6348240376, -0.3567,  0.0151,  0.0527,  0.1512,  0.0829, -0.0312
1492035352.6351919174,1492035352.6374940872, -0.3567,  0.0151,  0.0527,  0.1259,  0.0829, -0.0312
1492035352.6378629208,1492035352.6402180195, -0.3567,  0.0151,  0.0527,  0.1259,  0.0829, -0.0312
1492035352.6405949593,1492035352.6430280209, -0.3567,  0.0151,  0.0527,  0.1259,  0.0829, -0.0312
1492035352.6434020996,1492035352.6458230019, -0.3567,  0.0151,  0.0527,  0.0702,  0.1098,  0.0255
1492035352.6461999416,1492035352.6486189365, -0.3813, -0.0446,  0.0822,  0.0702,  0.1098,  0.0255
1492035352.6489961147,1492035352.6514389515, -0.3813, -0.0446,  0.0822,  0.0702,  0.1098,  0.0255
1492035352.6518149376,1492035352.6542429924, -0.3813, -0.0446,  0.0822,  0.0702,  0.1098,  0.0255
1492035352.6546199322,1492035352.6570510864, -0.3813, -0.0446,  0.0822,  0.0199,  0.1112,  0.0476
1492035352.6574299335,1492035352.6598570347, -0.3813, -0.0446,  0.0822,  0.0199,  0.1112,  0.0476
1492035352.6602389812,1492035352.6626620293, -0.3813, -0.0446,  0.0822,  0.0199,  0.1112,  0.0476
1492035352.6630389690,1492035352.6654639244, -0.3813, -0.0446,  0.0822,  0.0199,  0.0956,  0.0636
1492035352.6658420563,1492035352.6682679653, -0.2579, -0.1247,  0.1636,  0.0170,  0.0951,  0.0636
1492035352.6686460972,1492035352.6710340977, -0.2579, -0.1247,  0.1636,  0.0170,  0.0951,  0.0636
1492035352.6714038849,1492035352.6737139225, -0.2579, -0.1247,  0.1636,  0.0170,  0.0951,  0.0636
1492035352.6740849018,1492035352.6763830185, -0.2579, -0.1247,  0.1636,  0.0565,  0.0789,  0.0766
1492035352.6767520905,1492035352.6790568829, -0.2579, -0.1247,  0.1636,  0.0565,  0.0789,  0.0766
1492035352.6794259548,1492035352.6817660332, -0.2579, -0.1247,  0.1636,  0.0565,  0.0789,  0.0766
1492035352.6821339130,1492035352.6844298840, -0.2579, -0.1247,  0.1636,  0.0565,  0.0789,  0.0766
1492035352.6847980022,1492035352.6870980263, -0.2579, -0.0418,  0.1256,  0.1060,  0.0671,  0.0723
1492035352.6874680519,1492035352.6897668839, -0.2144, -0.0418,  0.1256,  0.1060,  0.0671,  0.0723
1492035352.6901509762,1492035352.6925809383, -0.2144, -0.0418,  0.1256,  0.1060,  0.0671,  0.0723
1492035352.6929590702,1492035352.6953859329, -0.2144, -0.0418,  0.1256,  0.1060,  0.0671,  0.0723
1492035352.6957631111,1492035352.6981799603, -0.2144, -0.0418,  0.1256,  0.1986,  0.0506,  0.0193
1492035352.6985559464,1492035352.7010400295, -0.2144, -0.0418,  0.1256,  0.1986,  0.0506,  0.0193
1492035352.7014179230,1492035352.7038381100, -0.2144, -0.0418,  0.1256,  0.1986,  0.0506,  0.0193
1492035352.7042140961,1492035352.7066400051, -0.2144,  0.0676, -0.0185,  0.1986,  0.0584,  0.0214
1492035352.7070150375,1492035352.7094459534, -0.1970,  0.0678, -0.0185,  0.2469,  0.0617,  0.0214
1492035352.7098209858,1492035352.7122540474, -0.1970,  0.0678, -0.0185,  0.2469,  0.0617,  0.0214
1492035352.7126319408,1492035352.7150530815, -0.1970,  0.0678, -0.0185,  0.2469,  0.0617,  0.0214
1492035352.7154259682,1492035352.7178568840, -0.1970,  0.0678, -0.0185,  0.1818,  0.0884,  0.0713
1492035352.7183480263,1492035352.7208070755, -0.1970,  0.0678, -0.0185,  0.1818,  0.0884,  0.0713
1492035352.7211780548,1492035352.7234859467, -0.1970,  0.0678, -0.0185,  0.1818,  0.0884,  0.0713
1492035352.7238559723,1492035352.7261528969, -0.1970,  0.0678, -0.0593,  0.1818,  0.0884,  0.0713
1492035352.7265210152,1492035352.7288179398, -0.1920,  0.1442, -0.0593,  0.1048,  0.1373,  0.1530
1492035352.7291860580,1492035352.7314960957, -0.1920,  0.1442, -0.0593,  0.1048,  0.1373,  0.1530
1492035352.7318649292,1492035352.7341609001, -0.1920,  0.1442, -0.0593,  0.1048,  0.1373,  0.1530
1492035352.7345299721,1492035352.7368240356, -0.1920,  0.1442, -0.0593,  0.1048,  0.1373,  0.1530
1492035352.7371919155,1492035352.7394928932, -0.1920,  0.1442, -0.0593,  0.0410,  0.1607,  0.2036
1492035352.7398591042,1492035352.7422859669, -0.1920,  0.1442, -0.0593,  0.0410,  0.1607,  0.2036
1492035352.7426619530,1492035352.7450890541, -0.1920,  0.1442, -0.0593,  0.0410,  0.1607,  0.2036
1492035352.7454659939,1492035352.7478859425, -0.2133, -0.0574,  0.0808,  0.0410,  0.1920,  0.2431
1492035352.7482640743,1492035352.7506949902, -0.2133, -0.0574,  0.0808,  0.0507,  0.1890,  0.2431
1492035352.7510700226,1492035352.7535018921, -0.2133, -0.0574,  0.0808,  0.0507,  0.1890,  0.2431
1492035352.7538781166,1492035352.7562971115, -0.2133, -0.0574,  0.0808,  0.0507,  0.1890,  0.2431
1492035352.7566740513,1492035352.7590999603, -0.2133, -0.0574,  0.0808,  0.0523,  0.1994,  0.2721
1492035352.7594769001,1492035352.7619180679, -0.2133, -0.0574,  0.0808,  0.0523,  0.1994,  0.2721
1492035352.7622940540,1492035352.7647159100, -0.2133, -0.0574,  0.0808,  0.0523,  0.1994,  0.2721
1492035352.7650918961,1492035352.7675158978, -0.2122, -0.0934,  0.0855,  0.0523,  0.1994,  0.2721
1492035352.7678930759,1492035352.7703239918, -0.2122, -0.0934,  0.0855,  0.0577,  0.1910,  0.3040
1492035352.7707009315,1492035352.7731230259, -0.2122, -0.0934,  0.0855,  0.0577,  0.1910,  0.3040
1492035352.7734999657,1492035352.7759270668, -0.2122, -0.0934,  0.0855,  0.0577,  0.1910,  0.3040
1492035352.7763030529,1492035352.7787249088, -0.2122, -0.0934,  0.0855,  0.0577,  0.2222,  0.3327
1492035352.7791008949,1492035352.7814650536, -0.2122, -0.0934,  0.0855,  0.0786,  0.2206,  0.3327
1492035352.7818338871,1492035352.7841420174, -0.2122, -0.0934,  0.0855,  0.0786,  0.2206,  0.3327
1492035352.7845129967,1492035352.7868089676, -0.2065, -0.0213,  0.0585,  0.0786,  0.2206,  0.3327
1492035352.7871780396,1492035352.7894790173, -0.2065, -0.0213,  0.0585,  0.0220,  0.2442,  0.3372
1492035352.7898468971,1492035352.7922840118, -0.2065, -0.0213,  0.0585,  0.0220,  0.2442,  0.3372
1492035352.7926599979,1492035352.7950880527, -0.2065, -0.0213,  0.0585,  0.0220,  0.2442,  0.3372
1492035352.7954640388,1492035352.7978949547, -0.2065, -0.0213,  0.0585,  0.0220,  0.2442,  0.3372
1492035352.7982718945,1492035352.8007090092, -0.2065, -0.0213,  0.0585,  0.0422,  0.2427,  0.3039
1492035352.8010880947,1492035352.8035130501, -0.2065, -0.0213,  0.0585,  0.0422,  0.2427,  0.3039
1492035352.8038890362,1492035352.8063170910, -0.2534, -0.1440,  0.0337,  0.0422,  0.2427,  0.3039
1492035352.8066940308,1492035352.8091170788, -0.2536, -0.1440,  0.0337,  0.0422,  0.2427,  0.2648
1492035352.8094909191,1492035352.8119359016, -0.2536, -0.1440,  0.0337,  0.1004,  0.2484,  0.2648
1492035352.8123130798,1492035352.8147389889, -0.2536, -0.1440,  0.0337,  0.1004,  0.2484,  0.2648
1492035352.8151168823,1492035352.8175380230, -0.2536, -0.1440,  0.0337,  0.1004,  0.2484,  0.2648
1492035352.8179121017,1492035352.8203530312, -0.2536, -0.1440,  0.0337,  0.0976,  0.2628,  0.2651
1492035352.8207321167,1492035352.8231549263, -0.2536, -0.1440,  0.0337,  0.0976,  0.2628,  0.2651
1492035352.8235330582,1492035352.8259589672, -0.2458, -0.1442,  0.0585,  0.0976,  0.2628,  0.2651
1492035352.8263349533,1492035352.8287630081, -0.2430, -0.1442,  0.0585,  0.0976,  0.2628,  0.2651
1492035352.8291389942,1492035352.8315041065, -0.2430, -0.1442,  0.0585,  0.0915,  0.2706,  0.2630
1492035352.8318750858,1492035352.8341810703, -0.2430, -0.1442,  0.0585,  0.0915,  0.2706,  0.2630
1492035352.8346600533,1492035352.8369638920, -0.2430, -0.1442,  0.0585,  0.0915,  0.2706,  0.2630
1492035352.8373339176,1492035352.8396360874, -0.2430, -0.1442,  0.0585,  0.0915,  0.2706,  0.2630
1492035352.8400371075,1492035352.8424649239, -0.2430, -0.1442,  0.0585,  0.0716,  0.2834,  0.2500
1492035352.8428399563,1492035352.8452610970, -0.2430, -0.1442,  0.0448,  0.0716,  0.2834,  0.2500
1492035352.8456399441,1492035352.8480598927, -0.2740, -0.1636,  0.0448,  0.0716,  0.2834,  0.2500
1492035352.8484361172,1492035352.8508720398, -0.2740, -0.1636,  0.0448,  0.0716,  0.2834,  0.1978
1492035352.8512480259,1492035352.8536739349, -0.2740, -0.1636,  0.0448,  0.0219,  0.2834,  0.1978
1492035352.8540511131,1492035352.8564839363, -0.2740, -0.1636,  0.0448,  0.0219,  0.2834,  0.1978
1492035352.8568599224,1492035352.8592839241, -0.2740, -0.1636,  0.0448,  0.0219,  0.2834,  0.1978
1492035352.8596620560,1492035352.8620901108, -0.2740, -0.1636,  0.0448, -0.0869,  0.2709,  0.1413
1492035352.8624670506,1492035352.8648951054, -0.2740, -0.1636,  0.0673, -0.0869,  0.2709,  0.1413
1492035352.8652749062,1492035352.8676979542, -0.2662, -0.1426,  0.0673, -0.0869,  0.2709,  0.1413
1492035352.8680729866,1492035352.8704888821, -0.2662, -0.1426,  0.0673, -0.0869,  0.2709,  0.1413
1492035352.8708579540,1492035352.8731670380, -0.2662, -0.1426,  0.0673, -0.1945,  0.2429,  0.1070
1492035352.8735370636,1492035352.8758289814, -0.2662, -0.1426,  0.0673, -0.1945,  0.2429,  0.1070
1492035352.8762009144,1492035352.8785009384, -0.2662, -0.1426,  0.0673, -0.1945,  0.2429,  0.1070
1492035352.8788700104,1492035352.8812758923, -0.2662, -0.1426,  0.0673, -0.1945,  0.2429,  0.0809
1492035352.8816521168,1492035352.8840770721, -0.2662, -0.1426,  0.0673, -0.2421,  0.2193,  0.0809
1492035352.8844540119,1492035352.8868770599, -0.2107, -0.0511,  0.0460, -0.2421,  0.2193,  0.0809
1492035352.8872539997,1492035352.8896830082, -0.2107, -0.0511,  0.0460, -0.2421,  0.2193,  0.0809
1492035352.8900690079,1492035352.8924939632, -0.2107, -0.0511,  0.0460, -0.2660,  0.2058,  0.0571
1492035352.8928689957,1492035352.8953020573, -0.2107, -0.0511,  0.0460, -0.2660,  0.2058,  0.0571
1492035352.8956789970,1492035352.8980989456, -0.2107, -0.0511,  0.0460, -0.2660,  0.2058,  0.0571
1492035352.8984770775,1492035352.9009160995, -0.2107, -0.0511,  0.0460, -0.2660,  0.2058,  0.0571
1492035352.9012908936,1492035352.9037160873, -0.2107, -0.0511,  0.0460, -0.2803,  0.1666,  0.0042
1492035352.9040930271,1492035352.9065139294, -0.1709, -0.0261,  0.0600, -0.2803,  0.1666,  0.0042
1492035352.9068930149,1492035352.9093248844, -0.1709, -0.0261,  0.0600, -0.2803,  0.1666,  0.0042
1492035352.9097020626,1492035352.9121379852, -0.1709, -0.0261,  0.0600, -0.2803,  0.1666, -0.0627
1492035352.9125161171,1492035352.9149320126, -0.1709, -0.0261,  0.0600, -0.2760,  0.1148, -0.0627
1492035352.9153089523,1492035352.9177339077, -0.1709, -0.0261,  0.0600, -0.2760,  0.1148, -0.0627
1492035352.9181129932,1492035352.9205129147, -0.1709, -0.0261,  0.0600, -0.2760,  0.1148, -0.0627
1492035352.9208819866,1492035352.9231860638, -0.1709, -0.0261,  0.0600, -0.2605,  0.0766, -0.1366
1492035352.9235560894,1492035352.9258561134, -0.1173,  0.0264,  0.0685, -0.2605,  0.0766, -0.1366
1492035352.9262270927,1492035352.9285240173, -0.1173,  0.0264,  0.0685, -0.2605,  0.0766, -0.1366
1492035352.9288940430,1492035352.9313180447, -0.1173,  0.0264,  0.0685, -0.2605,  0.0766, -0.1366
1492035352.9316968918,1492035352.9341199398, -0.1173,  0.0264,  0.0685, -0.2435,  0.0428, -0.2078
1492035352.9344949722,1492035352.9369208813, -0.1173,  0.0264,  0.0685, -0.2435,  0.0428, -0.2078
1492035352.9372980595,1492035352.9397289753, -0.1173,  0.0264,  0.0685, -0.2435,  0.0428, -0.2078
1492035352.9401149750,1492035352.9425380230, -0.1173,  0.0264,  0.0685, -0.2435,  0.0428, -0.2078
1492035352.9429149628,1492035352.9453411102, -0.0951,  0.0809,  0.0579, -0.2182,  0.0076, -0.2787
1492035352.9457180500,1492035352.9481399059, -0.0951,  0.0809,  0.0579, -0.2182,  0.0076, -0.2787
1492035352.9485170841,1492035352.9509539604, -0.0951,  0.0809,  0.0579, -0.2182,  0.0076, -0.2787
1492035352.9514379501,1492035352.9538710117, -0.0951,  0.0809,  0.0579, -0.1869, -0.0280, -0.3574
1492035352.9542489052,1492035352.9566750526, -0.0951,  0.0809,  0.0579, -0.1826, -0.0280, -0.3574
1492035352.9570519924,1492035352.9594769478, -0.0951,  0.0809,  0.0579, -0.1826, -0.0280, -0.3574
1492035352.9598550797,1492035352.9622929096, -0.0951,  0.0809,  0.0579, -0.1826, -0.0280, -0.3574
1492035352.9626710415,1492035352.9650979042, -0.0984,  0.1036,  0.0562, -0.1382, -0.0573, -0.4319
1492035352.9654750824,1492035352.9679050446, -0.0984,  0.1036,  0.0562, -0.1382, -0.0573, -0.4319
1492035352.9682829380,1492035352.9706919193, -0.0984,  0.1036,  0.0562, -0.1382, -0.0573, -0.4319
1492035352.9710619450,1492035352.9733619690, -0.0984,  0.1036,  0.0562, -0.1382, -0.0573, -0.4319
1492035352.9737329483,1492035352.9760379791, -0.0984,  0.1036,  0.0562, -0.0863, -0.0848, -0.5005
1492035352.9764080048,1492035352.9787030220, -0.0984,  0.1036,  0.0562, -0.0863, -0.0848, -0.5005
1492035352.9790709019,1492035352.9815180302, -0.0984,  0.1036,  0.0562, -0.0863, -0.0848, -0.5005
