timestamp_before,timestamp_after,accel_x,accel_y,accel_z,gyro_x,gyro_y,gryo_z
1492035485.7880311012,1492035485.7908689976, -0.1837,  0.0163,  0.0266,  0.0046,  0.0027, -0.0075
1492035485.7913289070,1492035485.7936298847, -0.1837,  0.0163,  0.0266,  0.0046,  0.0027, -0.0075
1492035485.7940208912,1492035485.7963399887, -0.1830,  0.0158,  0.0237,  0.0046,  0.0027, -0.0075
1492035485.7967109680,1492035485.7990069389, -0.1830,  0.0158,  0.0237,  0.0046,  0.0034, -0.0073
1492035485.7993760109,1492035485.8016860485, -0.1830,  0.0158,  0.0237,  0.0055,  0.0034, -0.0073
1492035485.8020589352,1492035485.8043870926, -0.1830,  0.0158,  0.0237,  0.0055,  0.0034, -0.0073
1492035485.8047571182,1492035485.8070518970, -0.1830,  0.0158,  0.0237,  0.0055,  0.0034, -0.0073
1492035485.8074231148,1492035485.8097269535, -0.1830,  0.0158,  0.0237,  0.0055,  0.0035, -0.0079
1492035485.8101959229,1492035485.8125081062, -0.1830,  0.0158,  0.0237,  0.0055,  0.0035, -0.0079
1492035485.8128769398,1492035485.8151779175, -0.1832,  0.0153,  0.0212,  0.0055,  0.0035, -0.0079
1492035485.8155479431,1492035485.8178510666, -0.1832,  0.0153,  0.0212,  0.0055,  0.0035, -0.0079
1492035485.8182210922,1492035485.8205230236, -0.1832,  0.0153,  0.0212,  0.0038,  0.0032, -0.0074
1492035485.8208940029,1492035485.8231959343, -0.1832,  0.0153,  0.0212,  0.0038,  0.0032, -0.0074
1492035485.8235681057,1492035485.8258650303, -0.1832,  0.0153,  0.0212,  0.0038,  0.0032, -0.0074
1492035485.8262341022,1492035485.8285310268, -0.1832,  0.0153,  0.0212,  0.0038,  0.0032, -0.0074
1492035485.8288989067,1492035485.8313620090, -0.1832,  0.0153,  0.0212,  0.0028,  0.0024, -0.0065
1492035485.8317329884,1492035485.8340311050, -0.1832,  0.0153,  0.0232,  0.0028,  0.0024, -0.0065
1492035485.8344020844,1492035485.8367030621, -0.1827,  0.0144,  0.0232,  0.0028,  0.0024, -0.0065
1492035485.8370759487,1492035485.8393709660, -0.1827,  0.0144,  0.0232,  0.0028,  0.0024, -0.0065
1492035485.8397409916,1492035485.8420500755, -0.1827,  0.0144,  0.0232,  0.0024,  0.0011, -0.0057
1492035485.8424201012,1492035485.8447229862, -0.1827,  0.0144,  0.0232,  0.0024,  0.0011, -0.0057
1492035485.8450930119,1492035485.8473939896, -0.1827,  0.0144,  0.0232,  0.0024,  0.0011, -0.0057
1492035485.8477630615,1492035485.8500699997, -0.1827,  0.0144,  0.0232,  0.0024,  0.0011, -0.0042
1492035485.8504409790,1492035485.8527400494, -0.1827,  0.0144,  0.0232, -0.0010,  0.0010, -0.0042
1492035485.8531110287,1492035485.8555140495, -0.1830,  0.0151,  0.0240, -0.0010,  0.0010, -0.0042
1492035485.8558869362,1492035485.8581829071, -0.1830,  0.0151,  0.0240, -0.0010,  0.0010, -0.0042
1492035485.8585538864,1492035485.8611481190, -0.1830,  0.0151,  0.0240, -0.0088,  0.0012, -0.0055
1492035485.8615229130,1492035485.8638188839, -0.1830,  0.0151,  0.0240, -0.0151,  0.0012, -0.0055
1492035485.8641901016,1492035485.8664929867, -0.1830,  0.0151,  0.0240, -0.0151,  0.0012, -0.0055
1492035485.8668620586,1492035485.8691599369, -0.1830,  0.0151,  0.0240, -0.0151,  0.0012, -0.0055
1492035485.8695299625,1492035485.8720569611, -0.1830,  0.0151,  0.0240, -0.0332,  0.0022, -0.0093
1492035485.8724319935,1492035485.8748250008, -0.1805,  0.0156,  0.0215, -0.0332,  0.0022, -0.0093
1492035485.8752028942,1492035485.8776690960, -0.1805,  0.0156,  0.0215, -0.0332,  0.0022, -0.0093
1492035485.8780479431,1492035485.8804700375, -0.1805,  0.0156,  0.0215, -0.0332,  0.0022, -0.0093
1492035485.8808391094,1492035485.8831400871, -0.1805,  0.0156,  0.0215, -0.0245,  0.0031, -0.0086
1492035485.8835101128,1492035485.8858060837, -0.1805,  0.0156,  0.0215, -0.0245,  0.0031, -0.0086
1492035485.8861780167,1492035485.8884799480, -0.1805,  0.0156,  0.0215, -0.0245,  0.0031, -0.0086
1492035485.8888490200,1492035485.8911929131, -0.1805,  0.0156,  0.0215, -0.0245,  0.0031, -0.0053
1492035485.8915629387,1492035485.8938660622, -0.1805,  0.0156,  0.0264, -0.0209,  0.0016, -0.0053
1492035485.8942360878,1492035485.8965339661, -0.1781,  0.0136,  0.0264, -0.0209,  0.0016, -0.0053
1492035485.8969039917,1492035485.8992080688, -0.1781,  0.0136,  0.0264, -0.0209,  0.0016, -0.0053
1492035485.8995780945,1492035485.9020409584, -0.1781,  0.0136,  0.0264, -0.0287,  0.0029, -0.0078
1492035485.9025690556,1492035485.9050049782, -0.1781,  0.0136,  0.0264, -0.0247,  0.0029, -0.0078
1492035485.9053819180,1492035485.9078059196, -0.1781,  0.0136,  0.0264, -0.0247,  0.0029, -0.0078
1492035485.9081850052,1492035485.9105939865, -0.1781,  0.0136,  0.0264, -0.0247,  0.0029, -0.0078
1492035485.9109640121,1492035485.9132680893, -0.1781,  0.0136,  0.0202, -0.0299,  0.0035, -0.0101
1492035485.9136350155,1492035485.9159319401, -0.1844,  0.0238,  0.0202, -0.0299,  0.0035, -0.0101
1492035485.9163000584,1492035485.9186038971, -0.1844,  0.0238,  0.0202, -0.0299,  0.0035, -0.0101
1492035485.9189729691,1492035485.9213581085, -0.1844,  0.0238,  0.0202, -0.0299,  0.0035, -0.0101
1492035485.9217269421,1492035485.9240279198, -0.1844,  0.0238,  0.0202, -0.0332,  0.0057, -0.0106
1492035485.9243969917,1492035485.9266979694, -0.1844,  0.0238,  0.0202, -0.0332,  0.0057, -0.0106
1492035485.9270670414,1492035485.9293689728, -0.1844,  0.0238,  0.0202, -0.0332,  0.0057, -0.0106
1492035485.9297370911,1492035485.9321389198, -0.1844,  0.0238,  0.0202, -0.0332,  0.0057, -0.0084
1492035485.9325098991,1492035485.9348111153, -0.1819,  0.0171,  0.0212, -0.0288,  0.0058, -0.0084
1492035485.9351820946,1492035485.9374821186, -0.1819,  0.0171,  0.0212, -0.0288,  0.0058, -0.0084
1492035485.9378499985,1492035485.9401628971, -0.1819,  0.0171,  0.0212, -0.0288,  0.0058, -0.0084
1492035485.9405410290,1492035485.9429509640, -0.1819,  0.0171,  0.0212, -0.0288,  0.0056, -0.0058
1492035485.9433279037,1492035485.9457349777, -0.1819,  0.0171,  0.0212, -0.0265,  0.0056, -0.0058
1492035485.9461119175,1492035485.9485239983, -0.1819,  0.0171,  0.0212, -0.0265,  0.0056, -0.0058
1492035485.9488999844,1492035485.9513139725, -0.1819,  0.0171,  0.0212, -0.0265,  0.0056, -0.0058
1492035485.9516899586,1492035485.9541139603, -0.1895,  0.0203,  0.0182, -0.0287,  0.0080, -0.0062
1492035485.9544899464,1492035485.9569039345, -0.1895,  0.0203,  0.0182, -0.0287,  0.0080, -0.0062
1492035485.9572811127,1492035485.9596929550, -0.1895,  0.0203,  0.0182, -0.0287,  0.0080, -0.0062
1492035485.9600770473,1492035485.9624869823, -0.1895,  0.0203,  0.0182, -0.0287,  0.0080, -0.0062
1492035485.9628639221,1492035485.9652750492, -0.1895,  0.0203,  0.0182, -0.0268,  0.0110, -0.0069
1492035485.9656519890,1492035485.9681649208, -0.1895,  0.0203,  0.0182, -0.0268,  0.0110, -0.0069
1492035485.9685359001,1492035485.9709749222, -0.1895,  0.0203,  0.0182, -0.0268,  0.0110, -0.0069
1492035485.9713521004,1492035485.9737379551, -0.1845,  0.0171,  0.0186, -0.0268,  0.0110, -0.0060
1492035485.9741129875,1492035485.9766299725, -0.1845,  0.0171,  0.0186, -0.0227,  0.0114, -0.0060
1492035485.9770059586,1492035485.9793999195, -0.1845,  0.0171,  0.0186, -0.0227,  0.0114, -0.0060
1492035485.9806110859,1492035485.9829220772, -0.1845,  0.0171,  0.0186, -0.0227,  0.0114, -0.0060
1492035485.9832940102,1492035485.9855940342, -0.1845,  0.0171,  0.0186, -0.0229,  0.0073, -0.0032
1492035485.9859631062,1492035485.9882628918, -0.1845,  0.0171,  0.0186, -0.0229,  0.0073, -0.0032
1492035485.9886329174,1492035485.9910490513, -0.1845,  0.0171,  0.0186, -0.0229,  0.0073, -0.0032
1492035485.9914269447,1492035485.9938530922, -0.1873,  0.0097,  0.0230, -0.0229,  0.0073, -0.0024
1492035485.9942319393,1492035485.9966590405, -0.1873,  0.0097,  0.0230, -0.0240,  0.0057, -0.0024
1492035485.9970378876,1492035485.9994599819, -0.1873,  0.0097,  0.0230, -0.0240,  0.0057, -0.0024
1492035485.9998381138,1492035486.0021560192, -0.1873,  0.0097,  0.0230, -0.0240,  0.0057, -0.0024
1492035486.0025300980,1492035486.0048370361, -0.1873,  0.0097,  0.0230, -0.0240,  0.0052, -0.0017
1492035486.0052089691,1492035486.0075109005, -0.1873,  0.0097,  0.0230, -0.0257,  0.0052, -0.0017
1492035486.0078799725,1492035486.0102291107, -0.1873,  0.0097,  0.0230, -0.0257,  0.0052, -0.0017
1492035486.0106010437,1492035486.0129029751, -0.1873,  0.0176,  0.0290, -0.0257,  0.0052, -0.0017
1492035486.0132730007,1492035486.0155720711, -0.1860,  0.0176,  0.0290, -0.0263,  0.0048, -0.0023
1492035486.0160610676,1492035486.0183589458, -0.1860,  0.0176,  0.0290, -0.0263,  0.0048, -0.0023
1492035486.0187280178,1492035486.0211880207, -0.1860,  0.0176,  0.0290, -0.0263,  0.0048, -0.0023
1492035486.0215570927,1492035486.0238521099, -0.1860,  0.0176,  0.0290, -0.0263,  0.0048, -0.0023
1492035486.0242199898,1492035486.0265250206, -0.1860,  0.0176,  0.0290, -0.0248,  0.0062, -0.0040
1492035486.0268950462,1492035486.0291950703, -0.1860,  0.0176,  0.0290, -0.0248,  0.0062, -0.0040
1492035486.0295650959,1492035486.0319120884, -0.1860,  0.0176,  0.0290, -0.0248,  0.0062, -0.0040
1492035486.0322809219,1492035486.0345900059, -0.1870,  0.0244,  0.0273, -0.0248,  0.0062, -0.0040
1492035486.0349590778,1492035486.0372641087, -0.1870,  0.0244,  0.0273, -0.0200,  0.0084, -0.0069
1492035486.0376319885,1492035486.0399320126, -0.1870,  0.0244,  0.0273, -0.0200,  0.0084, -0.0069
1492035486.0404779911,1492035486.0429079533, -0.1870,  0.0244,  0.0273, -0.0200,  0.0084, -0.0069
1492035486.0432860851,1492035486.0457129478, -0.1870,  0.0244,  0.0273, -0.0200,  0.0084, -0.0099
1492035486.0460879803,1492035486.0485188961, -0.1870,  0.0244,  0.0273, -0.0139,  0.0107, -0.0099
1492035486.0488960743,1492035486.0513319969, -0.1870,  0.0244,  0.0273, -0.0139,  0.0107, -0.0099
1492035486.0517098904,1492035486.0541300774, -0.1852,  0.0206,  0.0285, -0.0139,  0.0107, -0.0099
1492035486.0545039177,1492035486.0569379330, -0.1852,  0.0206,  0.0285, -0.0096,  0.0130, -0.0126
1492035486.0573139191,1492035486.0597400665, -0.1852,  0.0206,  0.0285, -0.0096,  0.0130, -0.0126
1492035486.0601260662,1492035486.0625560284, -0.1852,  0.0206,  0.0285, -0.0096,  0.0130, -0.0126
1492035486.0629339218,1492035486.0653688908, -0.1852,  0.0206,  0.0285, -0.0096,  0.0130, -0.0126
1492035486.0657460690,1492035486.0681788921, -0.1852,  0.0206,  0.0285, -0.0059,  0.0143, -0.0144
1492035486.0685570240,1492035486.0709869862, -0.1852,  0.0206,  0.0285, -0.0059,  0.0143, -0.0144
1492035486.0713589191,1492035486.0736610889, -0.1853,  0.0142,  0.0263, -0.0059,  0.0143, -0.0144
1492035486.0740299225,1492035486.0763289928, -0.1853,  0.0142,  0.0263, -0.0059,  0.0143, -0.0145
1492035486.0766959190,1492035486.0790040493, -0.1853,  0.0142,  0.0263, -0.0056,  0.0141, -0.0145
1492035486.0793719292,1492035486.0817790031, -0.1853,  0.0142,  0.0263, -0.0056,  0.0141, -0.0145
1492035486.0821559429,1492035486.0845870972, -0.1853,  0.0142,  0.0263, -0.0056,  0.0141, -0.0145
1492035486.0849640369,1492035486.0873990059, -0.1853,  0.0142,  0.0263, -0.0032,  0.0147, -0.0142
1492035486.0877759457,1492035486.0902330875, -0.1853,  0.0142,  0.0263, -0.0032,  0.0147, -0.0142
1492035486.0906109810,1492035486.0930380821, -0.1859,  0.0156,  0.0219, -0.0032,  0.0147, -0.0142
1492035486.0934150219,1492035486.0958459377, -0.1859,  0.0156,  0.0219, -0.0032,  0.0147, -0.0142
1492035486.0962629318,1492035486.0987060070, -0.1859,  0.0156,  0.0219, -0.0027,  0.0156, -0.0137
1492035486.0990839005,1492035486.1015210152, -0.1859,  0.0156,  0.0219, -0.0027,  0.0156, -0.0137
1492035486.1018970013,1492035486.1043229103, -0.1859,  0.0156,  0.0219, -0.0027,  0.0156, -0.0137
1492035486.1047010422,1492035486.1071279049, -0.1859,  0.0156,  0.0219, -0.0027,  0.0156, -0.0124
1492035486.1075038910,1492035486.1099259853, -0.1859,  0.0156,  0.0219, -0.0052,  0.0165, -0.0124
1492035486.1103539467,1492035486.1127789021, -0.1865,  0.0116,  0.0271, -0.0052,  0.0165, -0.0124
1492035486.1131560802,1492035486.1155860424, -0.1865,  0.0116,  0.0271, -0.0052,  0.0165, -0.0124
1492035486.1159620285,1492035486.1183860302, -0.1865,  0.0116,  0.0271, -0.0050,  0.0179, -0.0108
1492035486.1187639236,1492035486.1211900711, -0.1865,  0.0116,  0.0271, -0.0050,  0.0179, -0.0108
1492035486.1215589046,1492035486.1238648891, -0.1865,  0.0116,  0.0271, -0.0050,  0.0179, -0.0108
1492035486.1242339611,1492035486.1265339851, -0.1865,  0.0116,  0.0271, -0.0050,  0.0179, -0.0108
1492035486.1269049644,1492035486.1292018890, -0.1865,  0.0116,  0.0271, -0.0040,  0.0194, -0.0095
1492035486.1295719147,1492035486.1319088936, -0.1865,  0.0173,  0.0280, -0.0040,  0.0194, -0.0095
1492035486.1324000359,1492035486.1346991062, -0.1848,  0.0173,  0.0280, -0.0040,  0.0194, -0.0095
1492035486.1350679398,1492035486.1373660564, -0.1848,  0.0173,  0.0280, -0.0040,  0.0194, -0.0095
1492035486.1377348900,1492035486.1400680542, -0.1848,  0.0173,  0.0280, -0.0021,  0.0202, -0.0095
1492035486.1404380798,1492035486.1427319050, -0.1848,  0.0173,  0.0280, -0.0021,  0.0202, -0.0095
1492035486.1431019306,1492035486.1454019547, -0.1848,  0.0173,  0.0280, -0.0021,  0.0202, -0.0095
1492035486.1457719803,1492035486.1480710506, -0.1848,  0.0173,  0.0280, -0.0021,  0.0202, -0.0095
1492035486.1484389305,1492035486.1508960724, -0.1848,  0.0173,  0.0280,  0.0001,  0.0235, -0.0085
1492035486.1512649059,1492035486.1535649300, -0.1841,  0.0116,  0.0288,  0.0001,  0.0235, -0.0085
1492035486.1539330482,1492035486.1562349796, -0.1841,  0.0116,  0.0288,  0.0001,  0.0235, -0.0085
1492035486.1566050053,1492035486.1589050293, -0.1841,  0.0116,  0.0288,  0.0001,  0.0235, -0.0075
1492035486.1592750549,1492035486.1617729664, -0.1841,  0.0116,  0.0288,  0.0016,  0.0249, -0.0075
1492035486.1621499062,1492035486.1645729542, -0.1841,  0.0116,  0.0288,  0.0016,  0.0249, -0.0075
1492035486.1649498940,1492035486.1673719883, -0.1841,  0.0116,  0.0288,  0.0016,  0.0249, -0.0075
1492035486.1677520275,1492035486.1702411175, -0.1841,  0.0116,  0.0288,  0.0028,  0.0281, -0.0070
1492035486.1706099510,1492035486.1729118824, -0.1868,  0.0205,  0.0253,  0.0028,  0.0281, -0.0070
1492035486.1732809544,1492035486.1755800247, -0.1868,  0.0205,  0.0253,  0.0028,  0.0281, -0.0070
1492035486.1759479046,1492035486.1782488823, -0.1868,  0.0205,  0.0253,  0.0028,  0.0281, -0.0070
1492035486.1786179543,1492035486.1810190678, -0.1868,  0.0205,  0.0253,  0.0037,  0.0323, -0.0070
1492035486.1813991070,1492035486.1838250160, -0.1868,  0.0205,  0.0253,  0.0037,  0.0323, -0.0070
1492035486.1842010021,1492035486.1866281033, -0.1868,  0.0205,  0.0253,  0.0037,  0.0323, -0.0070
1492035486.1870040894,1492035486.1894309521, -0.1868,  0.0205,  0.0253,  0.0037,  0.0323, -0.0066
1492035486.1898100376,1492035486.1922450066, -0.1860,  0.0157,  0.0216,  0.0058,  0.0330, -0.0066
1492035486.1926219463,1492035486.1950469017, -0.1860,  0.0157,  0.0216,  0.0058,  0.0330, -0.0066
1492035486.1954240799,1492035486.1978459358, -0.1860,  0.0157,  0.0216,  0.0058,  0.0330, -0.0066
1492035486.1982219219,1492035486.2006580830, -0.1860,  0.0157,  0.0216,  0.0104,  0.0333, -0.0052
1492035486.2010350227,1492035486.2034609318, -0.1860,  0.0157,  0.0216,  0.0104,  0.0333, -0.0052
1492035486.2038369179,1492035486.2062621117, -0.1860,  0.0157,  0.0216,  0.0104,  0.0333, -0.0052
1492035486.2066380978,1492035486.2090649605, -0.1860,  0.0157,  0.0216,  0.0104,  0.0333, -0.0052
1492035486.2094430923,1492035486.2118790150, -0.1840,  0.0162,  0.0219,  0.0126,  0.0342, -0.0035
1492035486.2122550011,1492035486.2146770954, -0.1840,  0.0162,  0.0219,  0.0126,  0.0342, -0.0035
1492035486.2150530815,1492035486.2174780369, -0.1840,  0.0162,  0.0219,  0.0126,  0.0342, -0.0035
1492035486.2178540230,1492035486.2202870846, -0.1840,  0.0162,  0.0219,  0.0126,  0.0342, -0.0020
1492035486.2206559181,1492035486.2229590416, -0.1840,  0.0162,  0.0219,  0.0128,  0.0357, -0.0020
1492035486.2233281136,1492035486.2256290913, -0.1840,  0.0162,  0.0219,  0.0128,  0.0357, -0.0020
1492035486.2259960175,1492035486.2282960415, -0.1840,  0.0162,  0.0219,  0.0128,  0.0357, -0.0020
1492035486.2286651134,1492035486.2310628891, -0.1840,  0.0123,  0.0242,  0.0128,  0.0383,  0.0005
1492035486.2314410210,1492035486.2338678837, -0.1853,  0.0123,  0.0242,  0.0140,  0.0383,  0.0005
1492035486.2342460155,1492035486.2366709709, -0.1853,  0.0123,  0.0242,  0.0140,  0.0383,  0.0005
1492035486.2370450497,1492035486.2394630909, -0.1853,  0.0123,  0.0242,  0.0140,  0.0383,  0.0005
1492035486.2398409843,1492035486.2422749996, -0.1853,  0.0123,  0.0242,  0.0135,  0.0411,  0.0034
1492035486.2426519394,1492035486.2450740337, -0.1853,  0.0123,  0.0242,  0.0135,  0.0411,  0.0034
1492035486.2454490662,1492035486.2478780746, -0.1853,  0.0123,  0.0242,  0.0135,  0.0411,  0.0034
1492035486.2483630180,1492035486.2508380413, -0.1853,  0.0168,  0.0236,  0.0135,  0.0411,  0.0034
1492035486.2512159348,1492035486.2536399364, -0.1863,  0.0168,  0.0236,  0.0126,  0.0423,  0.0076
1492035486.2540159225,1492035486.2564420700, -0.1863,  0.0168,  0.0236,  0.0126,  0.0423,  0.0076
1492035486.2568190098,1492035486.2592470646, -0.1863,  0.0168,  0.0236,  0.0126,  0.0423,  0.0076
1492035486.2596220970,1492035486.2620530128, -0.1863,  0.0168,  0.0236,  0.0126,  0.0431,  0.0098
1492035486.2624309063,1492035486.2648561001, -0.1863,  0.0168,  0.0236,  0.0106,  0.0431,  0.0098
1492035486.2652320862,1492035486.2676570415, -0.1863,  0.0168,  0.0236,  0.0106,  0.0431,  0.0098
1492035486.2680339813,1492035486.2704510689, -0.1863,  0.0190,  0.0231,  0.0106,  0.0431,  0.0098
1492035486.2708210945,1492035486.2731211185, -0.1846,  0.0190,  0.0231,  0.0091,  0.0459,  0.0125
1492035486.2734899521,1492035486.2757849693, -0.1846,  0.0190,  0.0231,  0.0091,  0.0459,  0.0125
1492035486.2761518955,1492035486.2784550190, -0.1846,  0.0190,  0.0231,  0.0091,  0.0459,  0.0125
1492035486.2788250446,1492035486.2812469006, -0.1846,  0.0190,  0.0231,  0.0091,  0.0459,  0.0125
1492035486.2816219330,1492035486.2840509415, -0.1846,  0.0190,  0.0231,  0.0087,  0.0493,  0.0141
1492035486.2844278812,1492035486.2868480682, -0.1846,  0.0190,  0.0231,  0.0087,  0.0493,  0.0141
1492035486.2872231007,1492035486.2896449566, -0.1846,  0.0190,  0.0231,  0.0087,  0.0493,  0.0141
1492035486.2900309563,1492035486.2924580574, -0.1868,  0.0216,  0.0172,  0.0087,  0.0493,  0.0154
1492035486.2928340435,1492035486.2952620983, -0.1868,  0.0216,  0.0172,  0.0078,  0.0504,  0.0154
1492035486.2956390381,1492035486.2980608940, -0.1868,  0.0216,  0.0172,  0.0078,  0.0504,  0.0154
1492035486.2984371185,1492035486.3008840084, -0.1868,  0.0216,  0.0172,  0.0078,  0.0504,  0.0154
1492035486.3012590408,1492035486.3036870956, -0.1868,  0.0216,  0.0172,  0.0076,  0.0513,  0.0170
1492035486.3040630817,1492035486.3064889908, -0.1868,  0.0216,  0.0172,  0.0076,  0.0513,  0.0170
1492035486.3068659306,1492035486.3092970848, -0.1868,  0.0216,  0.0172,  0.0076,  0.0513,  0.0170
1492035486.3096721172,1492035486.3120040894, -0.1841,  0.0186,  0.0191,  0.0076,  0.0513,  0.0170
1492035486.3123729229,1492035486.3146739006, -0.1841,  0.0186,  0.0191,  0.0070,  0.0525,  0.0182
1492035486.3150420189,1492035486.3173439503, -0.1841,  0.0186,  0.0191,  0.0070,  0.0525,  0.0182
1492035486.3177139759,1492035486.3200531006, -0.1841,  0.0186,  0.0191,  0.0070,  0.0525,  0.0182
1492035486.3204309940,1492035486.3228549957, -0.1841,  0.0186,  0.0191,  0.0070,  0.0525,  0.0182
1492035486.3232309818,1492035486.3256568909, -0.1841,  0.0186,  0.0191,  0.0041,  0.0546,  0.0212
1492035486.3260309696,1492035486.3284580708, -0.1841,  0.0186,  0.0191,  0.0041,  0.0546,  0.0212
1492035486.3288359642,1492035486.3312749863, -0.1885,  0.0184,  0.0211,  0.0041,  0.0546,  0.0212
1492035486.3316500187,1492035486.3340749741, -0.1885,  0.0184,  0.0211,  0.0041,  0.0573,  0.0263
1492035486.3344500065,1492035486.3368771076, -0.1885,  0.0184,  0.0211,  0.0031,  0.0573,  0.0263
1492035486.3372559547,1492035486.3396799564, -0.1885,  0.0184,  0.0211,  0.0031,  0.0573,  0.0263
1492035486.3400640488,1492035486.3424880505, -0.1885,  0.0184,  0.0211,  0.0031,  0.0573,  0.0263
1492035486.3428630829,1492035486.3452899456, -0.1885,  0.0184,  0.0211,  0.0037,  0.0609,  0.0312
1492035486.3456640244,1492035486.3480939865, -0.1885,  0.0184,  0.0211,  0.0037,  0.0609,  0.0312
1492035486.3484709263,1492035486.3509080410, -0.1895,  0.0151,  0.0187,  0.0037,  0.0609,  0.0312
1492035486.3512830734,1492035486.3537058830, -0.1895,  0.0151,  0.0187,  0.0037,  0.0609,  0.0312
1492035486.3540799618,1492035486.3565089703, -0.1895,  0.0151,  0.0187,  0.0002,  0.0678,  0.0381
1492035486.3568859100,1492035486.3593089581, -0.1895,  0.0151,  0.0187,  0.0002,  0.0678,  0.0381
1492035486.3596839905,1492035486.3620269299, -0.1895,  0.0151,  0.0187,  0.0002,  0.0678,  0.0381
1492035486.3623960018,1492035486.3646960258, -0.1895,  0.0151,  0.0187,  0.0002,  0.0756,  0.0487
1492035486.3651700020,1492035486.3674709797, -0.1895,  0.0151,  0.0187, -0.0013,  0.0740,  0.0487
1492035486.3678419590,1492035486.3701438904, -0.1957,  0.0075,  0.0282, -0.0013,  0.0740,  0.0487
1492035486.3705151081,1492035486.3728089333, -0.1957,  0.0075,  0.0282, -0.0013,  0.0740,  0.0487
1492035486.3731789589,1492035486.3754830360, -0.1957,  0.0075,  0.0282,  0.0002,  0.0822,  0.0612
1492035486.3758521080,1492035486.3781530857, -0.1957,  0.0075,  0.0282,  0.0002,  0.0822,  0.0612
1492035486.3785219193,1492035486.3808801174, -0.1957,  0.0075,  0.0282,  0.0002,  0.0822,  0.0612
1492035486.3812580109,1492035486.3836839199, -0.1957,  0.0075,  0.0282,  0.0002,  0.0822,  0.0612
1492035486.3840610981,1492035486.3864920139, -0.1957,  0.0075,  0.0282, -0.0001,  0.0928,  0.0748
1492035486.3868689537,1492035486.3892960548, -0.1957,  0.0075,  0.0407, -0.0001,  0.0928,  0.0748
1492035486.3896749020,1492035486.3921039104, -0.2050,  0.0041,  0.0407, -0.0001,  0.0928,  0.0748
1492035486.3924820423,1492035486.3949089050, -0.2050,  0.0041,  0.0407, -0.0001,  0.0928,  0.0748
1492035486.3952879906,1492035486.3977169991, -0.2050,  0.0041,  0.0407, -0.0005,  0.1053,  0.0924
1492035486.3980939388,1492035486.4005270004, -0.2050,  0.0041,  0.0407, -0.0005,  0.1053,  0.0924
1492035486.4009048939,1492035486.4033350945, -0.2050,  0.0041,  0.0407, -0.0005,  0.1053,  0.0924
1492035486.4037129879,1492035486.4061369896, -0.2050,  0.0041,  0.0407,  0.0073,  0.1246,  0.1164
1492035486.4065139294,1492035486.4089388847, -0.2050,  0.0041,  0.0425,  0.0030,  0.1246,  0.1164
1492035486.4093179703,1492035486.4116659164, -0.2138, -0.0046,  0.0425,  0.0030,  0.1246,  0.1164
1492035486.4120359421,1492035486.4143319130, -0.2138, -0.0046,  0.0425,  0.0030,  0.1246,  0.1164
1492035486.4147028923,1492035486.4170041084, -0.2138, -0.0046,  0.0425,  0.0102,  0.1482,  0.1413
1492035486.4173738956,1492035486.4196729660, -0.2138, -0.0046,  0.0425,  0.0102,  0.1482,  0.1413
1492035486.4200649261,1492035486.4224929810, -0.2138, -0.0046,  0.0425,  0.0102,  0.1482,  0.1413
1492035486.4228699207,1492035486.4253010750, -0.2138, -0.0046,  0.0425,  0.0102,  0.1482,  0.1413
1492035486.4256770611,1492035486.4281001091, -0.2138, -0.0046,  0.0425,  0.0329,  0.1747,  0.1707
1492035486.4284780025,1492035486.4309151173, -0.2522,  0.0203,  0.0189,  0.0329,  0.1747,  0.1707
1492035486.4312920570,1492035486.4337179661, -0.2522,  0.0203,  0.0189,  0.0329,  0.1747,  0.1707
1492035486.4340929985,1492035486.4365251064, -0.2522,  0.0203,  0.0189,  0.0329,  0.1747,  0.1954
1492035486.4369020462,1492035486.4393320084, -0.2522,  0.0203,  0.0189,  0.0788,  0.2010,  0.1954
1492035486.4397089481,1492035486.4421451092, -0.2522,  0.0203,  0.0189,  0.0788,  0.2010,  0.1954
1492035486.4425210953,1492035486.4449450970, -0.2522,  0.0203,  0.0189,  0.0788,  0.2010,  0.1954
1492035486.4453210831,1492035486.4477500916, -0.2522,  0.0203,  0.0189,  0.1243,  0.2298,  0.2214
1492035486.4481270313,1492035486.4505290985, -0.3195,  0.0112,  0.0189,  0.1243,  0.2298,  0.2214
1492035486.4508988857,1492035486.4531989098, -0.3195,  0.0112,  0.0189,  0.1243,  0.2298,  0.2214
1492035486.4535660744,1492035486.4558670521, -0.3195,  0.0112,  0.0189,  0.1243,  0.2298,  0.2214
1492035486.4562349319,1492035486.4585340023, -0.3195,  0.0112,  0.0189,  0.1663,  0.2653,  0.2522
1492035486.4589009285,1492035486.4612801075, -0.3195,  0.0112,  0.0189,  0.1663,  0.2653,  0.2522
1492035486.4616560936,1492035486.4640769958, -0.3195,  0.0112,  0.0189,  0.1663,  0.2653,  0.2522
1492035486.4644520283,1492035486.4668769836, -0.3195,  0.0112,  0.0189,  0.1663,  0.2653,  0.2522
1492035486.4672520161,1492035486.4696791172, -0.3906,  0.0015,  0.0176,  0.1761,  0.3039,  0.2811
1492035486.4700679779,1492035486.4724929333, -0.3906,  0.0015,  0.0176,  0.1761,  0.3039,  0.2811
1492035486.4728710651,1492035486.4752929211, -0.3906,  0.0015,  0.0176,  0.1761,  0.3039,  0.2811
1492035486.4756700993,1492035486.4780991077, -0.3906,  0.0015,  0.0176,  0.1448,  0.3454,  0.2964
1492035486.4785749912,1492035486.4810469151, -0.3906,  0.0015,  0.0176,  0.1453,  0.3454,  0.2964
1492035486.4814250469,1492035486.4838550091, -0.3906,  0.0015,  0.0176,  0.1453,  0.3454,  0.2964
1492035486.4842319489,1492035486.4866631031, -0.3906,  0.0015,  0.0176,  0.1453,  0.3454,  0.2964
1492035486.4870390892,1492035486.4894669056, -0.5751, -0.1354,  0.0658,  0.0837,  0.3870,  0.3129
1492035486.4898440838,1492035486.4922819138, -0.5751, -0.1354,  0.0658,  0.0837,  0.3870,  0.3129
1492035486.4926578999,1492035486.4950859547, -0.5751, -0.1354,  0.0658,  0.0837,  0.3870,  0.3129
1492035486.4954609871,1492035486.4978880882, -0.5751, -0.1354,  0.0658,  0.0837,  0.3870,  0.3676
1492035486.4982669353,1492035486.5006759167, -0.5751, -0.1354,  0.0658, -0.0417,  0.4302,  0.3734
1492035486.5010440350,1492035486.5033440590, -0.5751, -0.1354,  0.0658, -0.0417,  0.4302,  0.3734
1492035486.5037128925,1492035486.5060110092, -0.5751, -0.1354,  0.0658, -0.0417,  0.4302,  0.3734
1492035486.5063800812,1492035486.5086839199, -0.5727, -0.2149,  0.0941, -0.0417,  0.4458,  0.4076
1492035486.5090529919,1492035486.5113959312, -0.5727, -0.2149,  0.0941, -0.1804,  0.4467,  0.4076
1492035486.5117669106,1492035486.5140609741, -0.5727, -0.2149,  0.0941, -0.1804,  0.4467,  0.4076
1492035486.5144300461,1492035486.5167250633, -0.5727, -0.2149,  0.0941, -0.1804,  0.4467,  0.4076
1492035486.5170929432,1492035486.5193860531, -0.5727, -0.2149,  0.0941, -0.2732,  0.4659,  0.4352
1492035486.5197548866,1492035486.5221889019, -0.5727, -0.2149,  0.0941, -0.2732,  0.4659,  0.4352
1492035486.5225639343,1492035486.5249869823, -0.5727, -0.2149,  0.0941, -0.2732,  0.4659,  0.4352
1492035486.5253620148,1492035486.5277850628, -0.5727, -0.2149,  0.0600, -0.2732,  0.4659,  0.4352
1492035486.5281600952,1492035486.5306360722, -0.4656, -0.0535,  0.0600, -0.3604,  0.4407,  0.4557
1492035486.5310111046,1492035486.5334320068, -0.4656, -0.0535,  0.0600, -0.3604,  0.4407,  0.4557
1492035486.5338099003,1492035486.5362339020, -0.4656, -0.0535,  0.0600, -0.3604,  0.4407,  0.4557
1492035486.5366110802,1492035486.5390379429, -0.4656, -0.0535,  0.0600, -0.3604,  0.4407,  0.4478
1492035486.5394129753,1492035486.5418519974, -0.4656, -0.0535,  0.0600, -0.4459,  0.4075,  0.4469
1492035486.5422279835,1492035486.5446560383, -0.4656, -0.0535,  0.0600, -0.4459,  0.4075,  0.4469
1492035486.5450301170,1492035486.5474541187, -0.4656, -0.0535,  0.0944, -0.4459,  0.4075,  0.4469
1492035486.5478279591,1492035486.5502679348, -0.2458, -0.1257,  0.0944, -0.4615,  0.3945,  0.4141
1492035486.5506429672,1492035486.5530700684, -0.2458, -0.1257,  0.0944, -0.4655,  0.3945,  0.4141
1492035486.5534460545,1492035486.5558710098, -0.2458, -0.1257,  0.0944, -0.4655,  0.3945,  0.4141
1492035486.5562460423,1492035486.5586779118, -0.2458, -0.1257,  0.0944, -0.4655,  0.3945,  0.4141
1492035486.5590529442,1492035486.5614209175, -0.2458, -0.1257,  0.0944, -0.4146,  0.3763,  0.3605
1492035486.5617909431,1492035486.5640890598, -0.2458, -0.1257,  0.0944, -0.4146,  0.3763,  0.3605
1492035486.5644569397,1492035486.5667560101, -0.2458, -0.1257,  0.0944, -0.4146,  0.3763,  0.3605
1492035486.5671238899,1492035486.5694229603, -0.2381, -0.0610,  0.1966, -0.4146,  0.3763,  0.3605
1492035486.5697920322,1492035486.5722548962, -0.2381, -0.0610,  0.1966, -0.4197,  0.3119,  0.3275
1492035486.5726308823,1492035486.5750579834, -0.2381, -0.0610,  0.1966, -0.4197,  0.3119,  0.3275
1492035486.5754339695,1492035486.5778639317, -0.2381, -0.0610,  0.1966, -0.4197,  0.3119,  0.3275
1492035486.5782411098,1492035486.5806760788, -0.2381, -0.0610,  0.1966, -0.4197,  0.2572,  0.2722
1492035486.5810511112,1492035486.5834739208, -0.2381, -0.0610,  0.1966, -0.3438,  0.2517,  0.2722
1492035486.5838510990,1492035486.5862760544, -0.2381, -0.0610,  0.1966, -0.3438,  0.2517,  0.2722
1492035486.5866520405,1492035486.5890779495, -0.1850, -0.1020,  0.2485, -0.3438,  0.2517,  0.2722
1492035486.5894539356,1492035486.5918879509, -0.1850, -0.1020,  0.2485, -0.2419,  0.2164,  0.1894
1492035486.5922660828,1492035486.5946888924, -0.1850, -0.1020,  0.2485, -0.2419,  0.2164,  0.1894
1492035486.5951709747,1492035486.5975968838, -0.1850, -0.1020,  0.2485, -0.2419,  0.2164,  0.1894
1492035486.5979731083,1492035486.6004359722, -0.1850, -0.1020,  0.2485, -0.2419,  0.2164,  0.1894
1492035486.6008119583,1492035486.6032359600, -0.1850, -0.1020,  0.2485, -0.1470,  0.1868,  0.1204
1492035486.6036109924,1492035486.6060369015, -0.1850, -0.1020,  0.2485, -0.1470,  0.1868,  0.1204
1492035486.6064128876,1492035486.6088349819, -0.0576, -0.0445,  0.1603, -0.1470,  0.1868,  0.1204
1492035486.6092119217,1492035486.6115651131, -0.0576, -0.0445,  0.1603, -0.1470,  0.1477,  0.0448
1492035486.6119329929,1492035486.6142320633, -0.0576, -0.0445,  0.1603, -0.0731,  0.1450,  0.0448
1492035486.6145999432,1492035486.6169030666, -0.0576, -0.0445,  0.1603, -0.0731,  0.1450,  0.0448
1492035486.6172709465,1492035486.6195719242, -0.0576, -0.0445,  0.1603, -0.0731,  0.1450,  0.0448
1492035486.6199390888,1492035486.6222438812, -0.0576, -0.0445,  0.1603, -0.0262,  0.0970, -0.0642
1492035486.6226160526,1492035486.6249129772, -0.0576, -0.0445,  0.1603, -0.0287,  0.0970, -0.0642
1492035486.6252830029,1492035486.6275780201, -0.0326, -0.1358,  0.0731, -0.0287,  0.0970, -0.0642
1492035486.6279470921,1492035486.6303000450, -0.0326, -0.1358,  0.0731, -0.0287,  0.0970, -0.0642
1492035486.6306760311,1492035486.6331090927, -0.0326, -0.1358,  0.0731, -0.0266,  0.0486, -0.1580
1492035486.6334838867,1492035486.6359140873, -0.0326, -0.1358,  0.0731, -0.0266,  0.0486, -0.1580
1492035486.6362929344,1492035486.6387178898, -0.0326, -0.1358,  0.0731, -0.0266,  0.0486, -0.1580
1492035486.6390929222,1492035486.6415278912, -0.0326, -0.1358,  0.0731, -0.0266,  0.0486, -0.1580
1492035486.6419041157,1492035486.6443319321, -0.0326, -0.1358,  0.0731, -0.0589, -0.0047, -0.2313
1492035486.6447110176,1492035486.6471400261, -0.0326, -0.1167,  0.0519, -0.0589, -0.0047, -0.2313
1492035486.6475160122,1492035486.6499400139, -0.0274, -0.1167,  0.0519, -0.0589, -0.0047, -0.2313
1492035486.6503760815,1492035486.6528038979, -0.0274, -0.1167,  0.0519, -0.0589, -0.0672, -0.3021
1492035486.6531798840,1492035486.6555960178, -0.0274, -0.1167,  0.0519, -0.1048, -0.0645, -0.3021
1492035486.6559729576,1492035486.6584000587, -0.0274, -0.1167,  0.0519, -0.1048, -0.0645, -0.3021
1492035486.6587769985,1492035486.6611819267, -0.0274, -0.1167,  0.0519, -0.1048, -0.0645, -0.3021
1492035486.6615509987,1492035486.6638588905, -0.0274, -0.1167,  0.0519, -0.1454, -0.1176, -0.3625
1492035486.6642301083,1492035486.6665210724, -0.0274, -0.0620,  0.0601, -0.1454, -0.1176, -0.3625
1492035486.6668930054,1492035486.6691920757, -0.0724, -0.0581,  0.0601, -0.1454, -0.1176, -0.3625
1492035486.6695609093,1492035486.6719720364, -0.0724, -0.0581,  0.0601, -0.1454, -0.1176, -0.3625
1492035486.6723499298,1492035486.6747720242, -0.0724, -0.0581,  0.0601, -0.1630, -0.1574, -0.4099
1492035486.6751480103,1492035486.6775701046, -0.0724, -0.0581,  0.0601, -0.1630, -0.1574, -0.4099
1492035486.6779460907,1492035486.6804170609, -0.0724, -0.0581,  0.0601, -0.1630, -0.1574, -0.4099
1492035486.6807940006,1492035486.6832160950, -0.0724, -0.0581,  0.0601, -0.1630, -0.1574, -0.4489
1492035486.6835920811,1492035486.6860220432, -0.0724, -0.0581,  0.0757, -0.1615, -0.1890, -0.4495
1492035486.6863989830,1492035486.6888279915, -0.1076, -0.0235,  0.0732, -0.1615, -0.1890, -0.4495
1492035486.6892049313,1492035486.6916339397, -0.1076, -0.0235,  0.0732, -0.1615, -0.1890, -0.4495
1492035486.6920089722,1492035486.6944329739, -0.1076, -0.0235,  0.0732, -0.1671, -0.2165, -0.4814
1492035486.6948089600,1492035486.6972310543, -0.1076, -0.0235,  0.0732, -0.1671, -0.2165, -0.4814
1492035486.6976079941,1492035486.7000420094, -0.1076, -0.0235,  0.0732, -0.1671, -0.2165, -0.4814
1492035486.7004189491,1492035486.7028470039, -0.1076, -0.0235,  0.0732, -0.1671, -0.2165, -0.4814
1492035486.7032248974,1492035486.7056479454, -0.1076, -0.0235,  0.0810, -0.1889, -0.2429, -0.5052
1492035486.7060239315,1492035486.7084479332, -0.1238, -0.0118,  0.0826, -0.1889, -0.2429, -0.5052
1492035486.7088270187,1492035486.7112009525, -0.1238, -0.0118,  0.0826, -0.1889, -0.2429, -0.5052
1492035486.7116780281,1492035486.7139790058, -0.1238, -0.0118,  0.0826, -0.1889, -0.2429, -0.5208
1492035486.7143499851,1492035486.7166469097, -0.1238, -0.0118,  0.0826, -0.2148, -0.2641, -0.5217
1492035486.7170150280,1492035486.7193191051, -0.1238, -0.0118,  0.0826, -0.2148, -0.2641, -0.5217
1492035486.7196900845,1492035486.7221069336, -0.1238, -0.0118,  0.0826, -0.2148, -0.2641, -0.5217
1492035486.7224850655,1492035486.7249109745, -0.1238, -0.0118,  0.0826, -0.2148, -0.2782, -0.5370
1492035486.7252891064,1492035486.7277140617, -0.1330,  0.0234,  0.0764, -0.2211, -0.2782, -0.5370
1492035486.7280879021,1492035486.7305219173, -0.1330,  0.0234,  0.0764, -0.2211, -0.2782, -0.5370
1492035486.7308990955,1492035486.7333300114, -0.1330,  0.0234,  0.0764, -0.2211, -0.2782, -0.5370
1492035486.7337059975,1492035486.7361340523, -0.1330,  0.0234,  0.0764, -0.2037, -0.2868, -0.5515
1492035486.7365090847,1492035486.7389290333, -0.1330,  0.0234,  0.0764, -0.2037, -0.2868, -0.5515
1492035486.7393040657,1492035486.7417519093, -0.1330,  0.0234,  0.0764, -0.2037, -0.2868, -0.5515
1492035486.7421278954,1492035486.7445580959, -0.1330,  0.0234,  0.0764, -0.2037, -0.2868, -0.5515
1492035486.7449350357,1492035486.7473700047, -0.1289,  0.0572,  0.0661, -0.1637, -0.2940, -0.5682
1492035486.7477469444,1492035486.7502288818, -0.1289,  0.0572,  0.0661, -0.1637, -0.2940, -0.5682
1492035486.7506060600,1492035486.7530360222, -0.1289,  0.0572,  0.0661, -0.1637, -0.2940, -0.5682
1492035486.7534129620,1492035486.7558419704, -0.1289,  0.0572,  0.0661, -0.1637, -0.2982, -0.5872
1492035486.7562179565,1492035486.7586491108, -0.1289,  0.0572,  0.0661, -0.1096, -0.2982, -0.5872
1492035486.7590270042,1492035486.7613890171, -0.1289,  0.0572,  0.0661, -0.1096, -0.2982, -0.5872
1492035486.7617609501,1492035486.7640550137, -0.1289,  0.0572,  0.0661, -0.1096, -0.2982, -0.5872
1492035486.7644240856,1492035486.7667260170, -0.1648,  0.0836,  0.0334, -0.0535, -0.2961, -0.6122
1492035486.7670938969,1492035486.7693910599, -0.1648,  0.0836,  0.0334, -0.0535, -0.2961, -0.6122
1492035486.7697610855,1492035486.7720639706, -0.1648,  0.0836,  0.0334, -0.0535, -0.2961, -0.6122
1492035486.7724330425,1492035486.7747330666, -0.1648,  0.0836,  0.0334, -0.0535, -0.2961, -0.6122
1492035486.7751019001,1492035486.7773969173, -0.1648,  0.0836,  0.0334,  0.0018, -0.2877, -0.6352
1492035486.7777700424,1492035486.7800700665, -0.1648,  0.0836,  0.0334,  0.0018, -0.2877, -0.6352
1492035486.7804489136,1492035486.7828710079, -0.1648,  0.0836,  0.0334,  0.0018, -0.2877, -0.6352
1492035486.7832489014,1492035486.7856719494, -0.1648,  0.1334, -0.0081,  0.0018, -0.2877, -0.6352
1492035486.7860500813,1492035486.7884719372, -0.2228,  0.1334, -0.0081,  0.0504, -0.2738, -0.6433
1492035486.7888510227,1492035486.7912800312, -0.2228,  0.1334, -0.0081,  0.0504, -0.2738, -0.6433
1492035486.7916579247,1492035486.7940840721, -0.2228,  0.1334, -0.0081,  0.0504, -0.2738, -0.6433
1492035486.7944591045,1492035486.7968831062, -0.2228,  0.1334, -0.0081,  0.0504, -0.2582, -0.6341
1492035486.7972609997,1492035486.7996859550, -0.2228,  0.1334, -0.0081,  0.0766, -0.2632, -0.6341
1492035486.8000710011,1492035486.8024981022, -0.2228,  0.1334, -0.0081,  0.0766, -0.2632, -0.6341
1492035486.8028750420,1492035486.8052999973, -0.2228,  0.2272, -0.0205,  0.0766, -0.2632, -0.6341
1492035486.8056759834,1492035486.8081040382, -0.3113,  0.2330, -0.0205,  0.0868, -0.2481, -0.5917
1492035486.8084809780,1492035486.8109180927, -0.3113,  0.2330, -0.0205,  0.0868, -0.2481, -0.5917
1492035486.8112928867,1492035486.8137190342, -0.3113,  0.2330, -0.0205,  0.0868, -0.2481, -0.5917
1492035486.8140950203,1492035486.8165209293, -0.3113,  0.2330, -0.0205,  0.0868, -0.2481, -0.5917
1492035486.8168990612,1492035486.8193249702, -0.3113,  0.2330, -0.0205,  0.0829, -0.2162, -0.5030
1492035486.8197009563,1492035486.8220329285, -0.3113,  0.2330, -0.0205,  0.0829, -0.2162, -0.5030
1492035486.8224020004,1492035486.8247020245, -0.3113,  0.2330, -0.0815,  0.0829, -0.2162, -0.5030
1492035486.8250699043,1492035486.8273689747, -0.3777,  0.4254, -0.0815,  0.0829, -0.2162, -0.3949
1492035486.8278429508,1492035486.8301560879, -0.3777,  0.4254, -0.0815,  0.1075, -0.1602, -0.3949
1492035486.8305349350,1492035486.8329639435, -0.3777,  0.4254, -0.0815,  0.1075, -0.1602, -0.3949
1492035486.8333420753,1492035486.8357679844, -0.3777,  0.4254, -0.0815,  0.1075, -0.1602, -0.3949
1492035486.8361439705,1492035486.8385679722, -0.3777,  0.4254, -0.0815,  0.1785, -0.0922, -0.2802
1492035486.8389439583,1492035486.8413779736, -0.3777,  0.4254, -0.0815,  0.1785, -0.0922, -0.2802
1492035486.8417549133,1492035486.8441820145, -0.3777,  0.4254, -0.0815,  0.1785, -0.0922, -0.2802
1492035486.8445580006,1492035486.8469829559, -0.3196,  0.5475, -0.1647,  0.1785, -0.0922, -0.2802
1492035486.8473598957,1492035486.8497779369, -0.3196,  0.5475, -0.1647,  0.2396, -0.0367, -0.1876
1492035486.8501639366,1492035486.8525910378, -0.3196,  0.5475, -0.1647,  0.2396, -0.0367, -0.1876
1492035486.8529660702,1492035486.8553929329, -0.3196,  0.5475, -0.1647,  0.2396, -0.0367, -0.1876
1492035486.8557701111,1492035486.8581979275, -0.3196,  0.5475, -0.1647,  0.2396, -0.0367, -0.1483
1492035486.8585739136,1492035486.8610470295, -0.3196,  0.5475, -0.1647,  0.2589, -0.0158, -0.1483
1492035486.8614239693,1492035486.8638510704, -0.3196,  0.5475, -0.1647,  0.2589, -0.0158, -0.1483
1492035486.8642270565,1492035486.8666489124, -0.2310,  0.4256, -0.2442,  0.2589, -0.0158, -0.1483
1492035486.8670229912,1492035486.8694479465, -0.2310,  0.4256, -0.2442,  0.2231,  0.0156, -0.0610
1492035486.8698239326,1492035486.8721740246, -0.2310,  0.4256, -0.2442,  0.2231,  0.0156, -0.0610
1492035486.8725430965,1492035486.8748381138, -0.2310,  0.4256, -0.2442,  0.2231,  0.0156, -0.0610
1492035486.8752069473,1492035486.8775041103, -0.2310,  0.4256, -0.2442,  0.2231,  0.0156, -0.0610
1492035486.8778738976,1492035486.8802189827, -0.2310,  0.4256, -0.2442,  0.1509,  0.0695,  0.0417
1492035486.8805871010,1492035486.8828830719, -0.2310,  0.4256, -0.2442,  0.1509,  0.0695,  0.0417
1492035486.8832519054,1492035486.8855490685, -0.1474,  0.2847, -0.2808,  0.1509,  0.0695,  0.0417
1492035486.8859169483,1492035486.8882150650, -0.1474,  0.2847, -0.2808,  0.1509,  0.0695,  0.0417
1492035486.8885819912,1492035486.8909399509, -0.1474,  0.2847, -0.2808,  0.0622,  0.0971,  0.1188
1492035486.8913180828,1492035486.8937430382, -0.1474,  0.2847, -0.2808,  0.0622,  0.0971,  0.1188
1492035486.8941180706,1492035486.8965420723, -0.1474,  0.2847, -0.2808,  0.0622,  0.0971,  0.1188
1492035486.8969199657,1492035486.8993470669, -0.1474,  0.2847, -0.2808,  0.0622,  0.0971,  0.1428
1492035486.8997240067,1492035486.9021608829, -0.1474,  0.2847, -0.2808, -0.0213,  0.0845,  0.1428
1492035486.9025359154,1492035486.9049570560, -0.0232,  0.2783, -0.2700, -0.0213,  0.0845,  0.1428
1492035486.9053330421,1492035486.9077560902, -0.0232,  0.2783, -0.2700, -0.0213,  0.0845,  0.1428
1492035486.9081320763,1492035486.9105560780, -0.0232,  0.2783, -0.2700, -0.0955,  0.1821,  0.2932
1492035486.9109339714,1492035486.9133620262, -0.0232,  0.2783, -0.2700, -0.0955,  0.1821,  0.2932
1492035486.9137380123,1492035486.9161651134, -0.0232,  0.2783, -0.2700, -0.0955,  0.1821,  0.2932
1492035486.9165420532,1492035486.9189639091, -0.0232,  0.2783, -0.2700, -0.0955,  0.1821,  0.2932
1492035486.9193420410,1492035486.9217689037, -0.0232,  0.2783, -0.2700, -0.3379, -0.2445,  0.3015
1492035486.9221460819,1492035486.9245679379, -0.7185,  0.2253,  0.7152, -0.3379, -0.2445,  0.3015
1492035486.9249420166,1492035486.9273669720, -0.7142,  0.2253,  0.7152, -0.3379, -0.2445,  0.3015
1492035486.9277439117,1492035486.9302020073, -0.7142,  0.2253,  0.7152, -0.3379, -0.2445,  0.2840
1492035486.9305698872,1492035486.9328670502, -0.7142,  0.2253,  0.7152, -0.2057, -0.1398,  0.2840
1492035486.9332349300,1492035486.9355340004, -0.7142,  0.2253,  0.7152, -0.2057, -0.1398,  0.2840
1492035486.9358999729,1492035486.9382040501, -0.7142,  0.2253,  0.7152, -0.2057, -0.1398,  0.2840
1492035486.9385709763,1492035486.9409770966, -0.7142,  0.2253,  0.7152, -0.2057,  0.2446,  0.2079
1492035486.9413559437,1492035486.9437839985, -0.7142,  0.2253,  0.0225,  0.2505,  0.2446,  0.2079
1492035486.9442749023,1492035486.9467029572, -0.1785, -0.0583,  0.0225,  0.2505,  0.2446,  0.2079
1492035486.9470779896,1492035486.9495019913, -0.1785, -0.0583,  0.0225,  0.2505,  0.2446,  0.2079
1492035486.9498810768,1492035486.9523220062, -0.1785, -0.0583,  0.0225,  0.0472,  0.1552,  0.6678
1492035486.9526960850,1492035486.9551229477, -0.1785, -0.0583,  0.0225,  0.0472,  0.1552,  0.6678
1492035486.9554979801,1492035486.9579229355, -0.1785, -0.0583,  0.0225,  0.0472,  0.1552,  0.6678
1492035486.9582979679,1492035486.9607319832, -0.1785, -0.0583,  0.0225,  0.0472,  0.1552,  0.6678
1492035486.9611070156,1492035486.9635310173, -0.1785, -0.0583, -0.1550, -0.2424,  0.1819,  0.7864
1492035486.9639060497,1492035486.9663329124,  0.1330,  0.2760, -0.1550, -0.2424,  0.1819,  0.7864
1492035486.9667079449,1492035486.9691340923,  0.1330,  0.2760, -0.1550, -0.2424,  0.1819,  0.7864
1492035486.9695100784,1492035486.9719469547,  0.1330,  0.2760, -0.1550, -0.2424,  0.1316,  0.3987
1492035486.9723219872,1492035486.9747500420,  0.1330,  0.2760, -0.1550, -0.0121,  0.1316,  0.3987
1492035486.9751260281,1492035486.9775519371,  0.1330,  0.2760, -0.1550, -0.0121,  0.1316,  0.3987
1492035486.9779310226,1492035486.9803469181,  0.1330,  0.2760, -0.1550, -0.0121,  0.1316,  0.3987
1492035486.9807178974,1492035486.9830229282,  0.1330,  0.2760, -0.0535,  0.1172, -0.0445,  0.2571
1492035486.9833929539,1492035486.9856929779, -0.1613,  0.1073, -0.0519,  0.1172, -0.0445,  0.2571
1492035486.9860630035,1492035486.9883670807, -0.1613,  0.1073, -0.0519,  0.1172, -0.0445,  0.2571
1492035486.9887371063,1492035486.9911570549, -0.1613,  0.1073, -0.0519,  0.1172, -0.0445,  0.2571
1492035486.9915359020,1492035486.9939649105, -0.1613,  0.1073, -0.0519,  0.1941, -0.0291,  0.1783
1492035486.9943408966,1492035486.9967710972, -0.1613,  0.1073, -0.0519,  0.1941, -0.0291,  0.1783
1492035486.9971480370,1492035486.9995639324, -0.1613,  0.1073, -0.0519,  0.1941, -0.0291,  0.1783
1492035486.9999420643,1492035487.0023701191, -0.1613,  0.1073, -0.0519,  0.1941, -0.0291,  0.1962
1492035487.0027480125,1492035487.0051729679, -0.2641,  0.0687,  0.0838,  0.1915, -0.0133,  0.1962
1492035487.0055489540,1492035487.0079770088, -0.2641,  0.0687,  0.0838,  0.1915, -0.0133,  0.1962
1492035487.0083539486,1492035487.0108149052, -0.2641,  0.0687,  0.0838,  0.1915, -0.0133,  0.1962
1492035487.0111908913,1492035487.0136160851, -0.2641,  0.0687,  0.0838,  0.1563,  0.0985,  0.2388
1492035487.0139920712,1492035487.0164189339, -0.2641,  0.0687,  0.0838,  0.1563,  0.0985,  0.2388
1492035487.0167939663,1492035487.0192229748, -0.2641,  0.0687,  0.0838,  0.1563,  0.0985,  0.2388
1492035487.0195989609,1492035487.0220348835, -0.2641,  0.0687,  0.0838,  0.1563,  0.0985,  0.2388
1492035487.0224120617,1492035487.0248389244, -0.2056,  0.1073, -0.0184,  0.1879,  0.1278,  0.2193
1492035487.0252149105,1492035487.0276379585, -0.2056,  0.1073, -0.0184,  0.1879,  0.1278,  0.2193
1492035487.0280170441,1492035487.0304350853, -0.2056,  0.1073, -0.0184,  0.1879,  0.1278,  0.2193
1492035487.0308029652,1492035487.0330989361, -0.2056,  0.1073, -0.0184,  0.1879,  0.1278,  0.1888
1492035487.0334689617,1492035487.0357670784, -0.2056,  0.1073, -0.0184,  0.2901,  0.2633,  0.1888
1492035487.0361349583,1492035487.0384349823, -0.2056,  0.1073, -0.0184,  0.2901,  0.2633,  0.1888
1492035487.0388031006,1492035487.0411660671, -0.2056,  0.1073, -0.0184,  0.2901,  0.2633,  0.1888
1492035487.0415430069,1492035487.0439529419, -0.1874,  0.1047,  0.0057,  0.2901,  0.1142,  0.1826
1492035487.0443289280,1492035487.0467379093, -0.1874,  0.1047,  0.0057,  0.1871,  0.1142,  0.1826
1492035487.0471138954,1492035487.0495219231, -0.1874,  0.1047,  0.0057,  0.1871,  0.1142,  0.1826
1492035487.0498991013,1492035487.0523180962, -0.1874,  0.1047,  0.0057,  0.1871,  0.1142,  0.1826
1492035487.0526928902,1492035487.0551030636, -0.1874,  0.1047,  0.0057,  0.1866,  0.1091,  0.1482
1492035487.0554780960,1492035487.0578870773, -0.1874,  0.1047,  0.0057,  0.1866,  0.1091,  0.1482
1492035487.0583600998,1492035487.0608179569, -0.1874,  0.1047,  0.0057,  0.1866,  0.1091,  0.1482
1492035487.0611929893,1492035487.0636041164, -0.2338,  0.1211, -0.0357,  0.1866,  0.1091,  0.1482
1492035487.0639801025,1492035487.0663859844, -0.2338,  0.1211, -0.0357,  0.1803,  0.1062,  0.1280
1492035487.0667619705,1492035487.0691690445, -0.2338,  0.1211, -0.0357,  0.1803,  0.1062,  0.1280
1492035487.0695469379,1492035487.0719609261, -0.2338,  0.1211, -0.0357,  0.1803,  0.1062,  0.1280
1492035487.0723369122,1492035487.0747420788, -0.2338,  0.1211, -0.0357,  0.1803,  0.1142,  0.0961
1492035487.0751171112,1492035487.0775260925, -0.2338,  0.1211, -0.0357,  0.1809,  0.1142,  0.0961
1492035487.0779030323,1492035487.0803139210, -0.2338,  0.1211, -0.0357,  0.1809,  0.1142,  0.0961
1492035487.0806849003,1492035487.0829861164, -0.2963,  0.1486,  0.0344,  0.1809,  0.1142,  0.0961
1492035487.0833539963,1492035487.0856540203, -0.2892,  0.1486,  0.0344,  0.2016,  0.1270,  0.0615
1492035487.0860230923,1492035487.0883200169, -0.2892,  0.1486,  0.0344,  0.2016,  0.1270,  0.0615
1492035487.0886878967,1492035487.0911979675, -0.2892,  0.1486,  0.0344,  0.2016,  0.1270,  0.0615
1492035487.0915760994,1492035487.0939910412, -0.2892,  0.1486,  0.0344,  0.2016,  0.1270,  0.0615
1492035487.0943670273,1492035487.0967769623, -0.2892,  0.1486,  0.0344,  0.2140,  0.1385,  0.0093
1492035487.0971519947,1492035487.0995659828, -0.2892,  0.1486,  0.0344,  0.2140,  0.1385,  0.0093
1492035487.0999419689,1492035487.1023540497, -0.2892,  0.1486,  0.0152,  0.2140,  0.1385,  0.0093
1492035487.1027309895,1492035487.1051440239, -0.4124,  0.0854,  0.0152,  0.2140,  0.1385, -0.0453
1492035487.1055190563,1492035487.1079308987, -0.4124,  0.0854,  0.0152,  0.1984,  0.1445, -0.0453
1492035487.1083049774,1492035487.1107289791, -0.4124,  0.0854,  0.0152,  0.1984,  0.1445, -0.0453
1492035487.1111049652,1492035487.1136050224, -0.4124,  0.0854,  0.0152,  0.1984,  0.1445, -0.0453
1492035487.1139810085,1492035487.1163959503, -0.4124,  0.0854,  0.0152,  0.1362,  0.1235, -0.0482
1492035487.1167709827,1492035487.1191849709, -0.4124,  0.0854,  0.0152,  0.1362,  0.1235, -0.0482
1492035487.1195609570,1492035487.1220281124, -0.4124,  0.0854,  0.1229,  0.1362,  0.1235, -0.0482
1492035487.1224029064,1492035487.1248478889, -0.4812, -0.0246,  0.1229,  0.1362,  0.1235, -0.0482
1492035487.1252229214,1492035487.1276528835, -0.4812, -0.0246,  0.1229,  0.0863,  0.1072, -0.0372
1492035487.1280300617,1492035487.1304628849, -0.4812, -0.0246,  0.1229,  0.0863,  0.1072, -0.0372
1492035487.1308400631,1492035487.1332659721, -0.4812, -0.0246,  0.1229,  0.0863,  0.1072, -0.0372
1492035487.1336429119,1492035487.1360681057, -0.4812, -0.0246,  0.1229,  0.0863,  0.1072,  0.0324
1492035487.1364450455,1492035487.1388700008, -0.4812, -0.0246,  0.1229, -0.0010,  0.0977,  0.0324
1492035487.1392469406,1492035487.1416070461, -0.4812, -0.0246,  0.2479, -0.0010,  0.0977,  0.0324
1492035487.1419780254,1492035487.1442849636, -0.3040, -0.1437,  0.2438, -0.0010,  0.0977,  0.0324
1492035487.1446540356,1492035487.1469509602, -0.3040, -0.1437,  0.2438, -0.0323,  0.0911,  0.0703
1492035487.1473190784,1492035487.1496160030, -0.3040, -0.1437,  0.2438, -0.0348,  0.0911,  0.0703
1492035487.1500399113,1492035487.1524538994, -0.3040, -0.1437,  0.2438, -0.0348,  0.0911,  0.0703
1492035487.1528298855,1492035487.1552550793, -0.3040, -0.1437,  0.2438, -0.0348,  0.0911,  0.0703
1492035487.1556301117,1492035487.1580529213, -0.3040, -0.1437,  0.2438,  0.0148,  0.0626,  0.0384
1492035487.1584279537,1492035487.1608660221, -0.3040, -0.1437,  0.2438,  0.0148,  0.0626,  0.0384
1492035487.1612420082,1492035487.1636691093, -0.2860, -0.1531,  0.1446,  0.0148,  0.0626,  0.0384
1492035487.1640450954,1492035487.1664741039, -0.2860, -0.1531,  0.1446,  0.0148,  0.0626,  0.0384
1492035487.1668488979,1492035487.1692810059, -0.2860, -0.1531,  0.1446,  0.1565,  0.0287,  0.0196
1492035487.1696579456,1492035487.1720960140, -0.2860, -0.1531,  0.1446,  0.1565,  0.0287,  0.0196
1492035487.1724720001,1492035487.1748940945, -0.2860, -0.1531,  0.1446,  0.1565,  0.0287,  0.0196
1492035487.1753809452,1492035487.1778070927, -0.2860, -0.1531,  0.1446,  0.2190,  0.0199,  0.0224
1492035487.1781830788,1492035487.1805930138, -0.2860, -0.1531,  0.1446,  0.2260,  0.0199,  0.0224
1492035487.1809630394,1492035487.1832640171, -0.3135,  0.1942, -0.0859,  0.2260,  0.0199,  0.0224
1492035487.1836330891,1492035487.1859331131, -0.3135,  0.1942, -0.0859,  0.2260,  0.0199,  0.0224
1492035487.1863000393,1492035487.1886041164, -0.3135,  0.1942, -0.0859,  0.2497,  0.1088,  0.0870
1492035487.1889729500,1492035487.1913480759, -0.3135,  0.1942, -0.0859,  0.2497,  0.1088,  0.0870
1492035487.1917269230,1492035487.1941509247, -0.3135,  0.1942, -0.0859,  0.2497,  0.1088,  0.0870
1492035487.1945259571,1492035487.1969540119, -0.3135,  0.1942, -0.0859,  0.2497,  0.1088,  0.0870
1492035487.1973299980,1492035487.1997549534, -0.3135,  0.1942, -0.0859,  0.0923,  0.1209,  0.1788
1492035487.2001409531,1492035487.2025709152, -0.1673,  0.1234,  0.1021,  0.0923,  0.1209,  0.1788
1492035487.2029480934,1492035487.2053720951, -0.1673,  0.1234,  0.1021,  0.0923,  0.1209,  0.1788
1492035487.2057480812,1492035487.2081708908, -0.1673,  0.1234,  0.1021,  0.0923,  0.1209,  0.1736
1492035487.2085471153,1492035487.2110180855, -0.1673,  0.1234,  0.1021,  0.0213,  0.1544,  0.1736
1492035487.2113940716,1492035487.2138218880, -0.1673,  0.1234,  0.1021,  0.0213,  0.1544,  0.1736
1492035487.2141969204,1492035487.2166209221, -0.1673,  0.1234,  0.1021,  0.0213,  0.1544,  0.1736
1492035487.2169990540,1492035487.2194230556, -0.1673,  0.1234,  0.1021,  0.0462,  0.2138,  0.1758
1492035487.2197990417,1492035487.2222380638, -0.3050, -0.2030, -0.0315,  0.0462,  0.2138,  0.1758
1492035487.2226130962,1492035487.2250380516, -0.3050, -0.2030, -0.0315,  0.0462,  0.2138,  0.1758
1492035487.2254159451,1492035487.2278449535, -0.3050, -0.2030, -0.0315,  0.0462,  0.2138,  0.1758
1492035487.2282218933,1492035487.2306339741, -0.3050, -0.2030, -0.0315,  0.0055,  0.2675,  0.3564
1492035487.2310039997,1492035487.2333049774, -0.3050, -0.2030, -0.0315,  0.0055,  0.2675,  0.3564
1492035487.2336750031,1492035487.2359759808, -0.3050, -0.2030, -0.0315,  0.0055,  0.2675,  0.3564
1492035487.2363450527,1492035487.2386500835, -0.3050, -0.2030, -0.0315,  0.0055,  0.2675,  0.4658
1492035487.2390201092,1492035487.2414851189, -0.3050, -0.0432,  0.1293, -0.2162,  0.2833,  0.4649
1492035487.2418620586,1492035487.2442829609, -0.2143, -0.0432,  0.1293, -0.2162,  0.2833,  0.4649
1492035487.2446589470,1492035487.2470829487, -0.2143, -0.0432,  0.1293, -0.2162,  0.2833,  0.4649
1492035487.2474589348,1492035487.2498910427, -0.2143, -0.0432,  0.1293, -0.3022,  0.2443,  0.4973
1492035487.2502748966,1492035487.2527039051, -0.2143, -0.0432,  0.1293, -0.3027,  0.2443,  0.4973
1492035487.2530798912,1492035487.2555088997, -0.2143, -0.0432,  0.1293, -0.3027,  0.2443,  0.4973
1492035487.2558848858,1492035487.2583110332, -0.2143, -0.0432,  0.1293, -0.3027,  0.2443,  0.4973
1492035487.2586901188,1492035487.2611150742, -0.2143, -0.0744,  0.1360, -0.1694,  0.2052,  0.5043
1492035487.2614920139,1492035487.2639141083, -0.4030, -0.0724,  0.1360, -0.1694,  0.2052,  0.5043
1492035487.2642889023,1492035487.2667169571, -0.4030, -0.0724,  0.1360, -0.1694,  0.2052,  0.5043
1492035487.2670929432,1492035487.2695200443, -0.4030, -0.0724,  0.1360, -0.1694,  0.2052,  0.4965
1492035487.2698979378,1492035487.2722189426, -0.4030, -0.0724,  0.1360, -0.0052,  0.2260,  0.4974
1492035487.2725880146,1492035487.2748858929, -0.4030, -0.0724,  0.1360, -0.0052,  0.2260,  0.4974
1492035487.2752540112,1492035487.2775580883, -0.4030, -0.0724,  0.1360, -0.0052,  0.2260,  0.4974
1492035487.2779269218,1492035487.2802751064, -0.4030, -0.0724,  0.1360, -0.0052,  0.2260,  0.4772
1492035487.2806539536,1492035487.2830801010, -0.4211, -0.0822,  0.0927,  0.1002,  0.2520,  0.4772
1492035487.2834579945,1492035487.2858810425, -0.4211, -0.0822,  0.0927,  0.1002,  0.2520,  0.4772
1492035487.2862570286,1492035487.2886829376, -0.4211, -0.0822,  0.0927,  0.1002,  0.2520,  0.4772
1492035487.2890579700,1492035487.2914979458, -0.4211, -0.0822,  0.0927,  0.1776,  0.2783,  0.4534
1492035487.2919828892,1492035487.2944099903, -0.4211, -0.0822,  0.0927,  0.1776,  0.2783,  0.4534
1492035487.2947840691,1492035487.2972080708, -0.4211, -0.0822,  0.0927,  0.1776,  0.2783,  0.4534
1492035487.2975850105,1492035487.3000230789, -0.4211, -0.0822,  0.0927,  0.1776,  0.2783,  0.4534
1492035487.3004009724,1492035487.3028221130, -0.3740, -0.1418,  0.0349,  0.2032,  0.3114,  0.4305
1492035487.3031980991,1492035487.3056280613, -0.3740, -0.1418,  0.0349,  0.2032,  0.3114,  0.4305
1492035487.3060040474,1492035487.3084309101, -0.3740, -0.1418,  0.0349,  0.2032,  0.3114,  0.4305
1492035487.3088080883,1492035487.3112480640, -0.3740, -0.1418,  0.0349,  0.2032,  0.3270,  0.4146
1492035487.3116250038,1492035487.3140509129, -0.3740, -0.1418,  0.0349,  0.2048,  0.3280,  0.4146
1492035487.3144268990,1492035487.3168489933, -0.3740, -0.1418,  0.0349,  0.2048,  0.3280,  0.4146
1492035487.3172268867,1492035487.3196530342, -0.3740, -0.1418,  0.0349,  0.2048,  0.3280,  0.4146
1492035487.3200380802,1492035487.3223390579, -0.3343, -0.1541, -0.0368,  0.1684,  0.3390,  0.3732
1492035487.3227090836,1492035487.3250110149, -0.3343, -0.1541, -0.0368,  0.1684,  0.3390,  0.3732
1492035487.3253788948,1492035487.3276770115, -0.3343, -0.1541, -0.0368,  0.1684,  0.3390,  0.3732
1492035487.3280460835,1492035487.3304159641, -0.3343, -0.1541, -0.0368,  0.1684,  0.3390,  0.3732
1492035487.3307919502,1492035487.3332180977, -0.3343, -0.1541, -0.0368,  0.0897,  0.3367,  0.3015
1492035487.3335928917,1492035487.3360180855, -0.3343, -0.1541, -0.0368,  0.0897,  0.3367,  0.3015
1492035487.3363950253,1492035487.3388209343, -0.3343, -0.1541, -0.0368,  0.0897,  0.3367,  0.3015
1492035487.3391990662,1492035487.3416299820, -0.2667, -0.1577,  0.0215,  0.0897,  0.3367,  0.2155
1492035487.3420050144,1492035487.3444280624, -0.2667, -0.1577,  0.0215, -0.0485,  0.2948,  0.2178
1492035487.3448040485,1492035487.3472299576, -0.2667, -0.1577,  0.0215, -0.0485,  0.2948,  0.2178
1492035487.3476049900,1492035487.3500430584, -0.2667, -0.1577,  0.0215, -0.0485,  0.2948,  0.2178
1492035487.3504190445,1492035487.3528449535, -0.2667, -0.1577,  0.0215, -0.1970,  0.2099,  0.1481
1492035487.3532209396,1492035487.3556470871, -0.2667, -0.1577,  0.0215, -0.1970,  0.2099,  0.1481
1492035487.3560218811,1492035487.3584480286, -0.2667, -0.1577,  0.0215, -0.1970,  0.2099,  0.1481
1492035487.3588249683,1492035487.3612680435, -0.1218, -0.0742,  0.0904, -0.1970,  0.2099,  0.1481
1492035487.3616440296,1492035487.3640639782, -0.1218, -0.0742,  0.0904, -0.2813,  0.1385,  0.0945
1492035487.3644409180,1492035487.3668720722, -0.1218, -0.0742,  0.0904, -0.2813,  0.1385,  0.0945
1492035487.3672490120,1492035487.3696739674, -0.1218, -0.0742,  0.0904, -0.2813,  0.1385,  0.0945
1492035487.3700590134,1492035487.3723659515, -0.1218, -0.0742,  0.0904, -0.2813,  0.1385,  0.0945
1492035487.3727350235,1492035487.3750391006, -0.1218, -0.0742,  0.0904, -0.2896,  0.0872,  0.0266
1492035487.3754088879,1492035487.3777110577, -0.1218, -0.0742,  0.0904, -0.2896,  0.0872,  0.0266
1492035487.3780820370,1492035487.3804190159, -0.0437,  0.0326,  0.0560, -0.2896,  0.0872,  0.0266
1492035487.3807890415,1492035487.3830859661, -0.0436,  0.0326,  0.0560, -0.2896,  0.0872, -0.0595
1492035487.3834540844,1492035487.3857500553, -0.0436,  0.0326,  0.0560, -0.2533,  0.0627, -0.0595
1492035487.3861160278,1492035487.3884160519, -0.0436,  0.0326,  0.0560, -0.2533,  0.0627, -0.0595
1492035487.3887839317,1492035487.3911650181, -0.0436,  0.0326,  0.0560, -0.2533,  0.0627, -0.0595
1492035487.3915429115,1492035487.3939731121, -0.0436,  0.0326,  0.0560, -0.2143,  0.0233, -0.1770
1492035487.3943490982,1492035487.3967730999, -0.0436,  0.0326,  0.0560, -0.2115,  0.0233, -0.1770
1492035487.3971478939,1492035487.3995709419, -0.0436,  0.0326,  0.0485, -0.2115,  0.0233, -0.1770
1492035487.3999459743,1492035487.4023840427,  0.0630,  0.0382,  0.0485, -0.2115,  0.0233, -0.1770
1492035487.4027619362,1492035487.4051868916,  0.0630,  0.0382,  0.0485, -0.1807, -0.0290, -0.2917
1492035487.4055640697,1492035487.4079871178,  0.0630,  0.0382,  0.0485, -0.1807, -0.0290, -0.2917
1492035487.4084711075,1492035487.4109079838,  0.0630,  0.0382,  0.0485, -0.1807, -0.0290, -0.2917
1492035487.4112861156,1492035487.4137120247,  0.0630,  0.0382,  0.0485, -0.1807, -0.0290, -0.3854
1492035487.4140880108,1492035487.4165110588,  0.0630,  0.0382,  0.0485, -0.1494, -0.0638, -0.3874
1492035487.4168879986,1492035487.4193139076,  0.0630,  0.0382,  0.0429, -0.1494, -0.0638, -0.3874
1492035487.4196920395,1492035487.4221301079,  0.0561,  0.0760,  0.0429, -0.1494, -0.0638, -0.3874
1492035487.4225060940,1492035487.4249339104,  0.0561,  0.0760,  0.0429, -0.1118, -0.0900, -0.4938
1492035487.4253098965,1492035487.4277400970,  0.0561,  0.0760,  0.0429, -0.1118, -0.0900, -0.4938
1492035487.4281170368,1492035487.4305150509,  0.0561,  0.0760,  0.0429, -0.1118, -0.0900, -0.4938
1492035487.4308869839,1492035487.4331901073,  0.0561,  0.0760,  0.0429, -0.1118, -0.0900, -0.4938
1492035487.4335589409,1492035487.4358599186,  0.0561,  0.0760,  0.0429, -0.0642, -0.1260, -0.5888
1492035487.4362258911,1492035487.4385230541,  0.0561,  0.0760,  0.0429, -0.0642, -0.1260, -0.5888
1492035487.4388909340,1492035487.4412961006,  0.0078,  0.0704,  0.0317, -0.0642, -0.1260, -0.5888
1492035487.4416720867,1492035487.4440989494,  0.0078,  0.0704,  0.0317, -0.0642, -0.1260, -0.5888
1492035487.4444749355,1492035487.4469010830,  0.0078,  0.0704,  0.0317, -0.0088, -0.1557, -0.6574
1492035487.4472770691,1492035487.4496989250,  0.0078,  0.0704,  0.0317, -0.0088, -0.1557, -0.6574
1492035487.4500849247,1492035487.4525101185,  0.0078,  0.0704,  0.0317, -0.0088, -0.1557, -0.6574
1492035487.4528889656,1492035487.4553129673,  0.0078,  0.0704,  0.0317, -0.0088, -0.1791, -0.6975
1492035487.4556899071,1492035487.4581189156,  0.0078,  0.0704,  0.0317,  0.0505, -0.1760, -0.6975
1492035487.4584949017,1492035487.4609360695, -0.0515,  0.0330,  0.0199,  0.0505, -0.1760, -0.6975
1492035487.4613130093,1492035487.4637439251, -0.0515,  0.0330,  0.0199,  0.0505, -0.1760, -0.6975
1492035487.4641211033,1492035487.4665510654, -0.0515,  0.0330,  0.0199,  0.0789, -0.1871, -0.7218
1492035487.4669260979,1492035487.4693551064, -0.0515,  0.0330,  0.0199,  0.0789, -0.1871, -0.7218
1492035487.4697320461,1492035487.4721629620, -0.0515,  0.0330,  0.0199,  0.0789, -0.1871, -0.7218
1492035487.4725389481,1492035487.4749650955, -0.0515,  0.0330,  0.0199,  0.0789, -0.1871, -0.7218
1492035487.4753420353,1492035487.4777719975, -0.0515,  0.0330,  0.0199,  0.0666, -0.2054, -0.7418
1492035487.4781470299,1492035487.4805901051, -0.0525, -0.0273,  0.0250,  0.0666, -0.2054, -0.7418
1492035487.4809598923,1492035487.4832630157, -0.0525, -0.0273,  0.0250,  0.0666, -0.2054, -0.7418
1492035487.4836308956,1492035487.4859349728, -0.0525, -0.0273,  0.0250,  0.0666, -0.2054, -0.7612
1492035487.4863049984,1492035487.4886069298, -0.0525, -0.0273,  0.0250,  0.0300, -0.2399, -0.7612
1492035487.4889750481,1492035487.4913539886, -0.0525, -0.0273,  0.0250,  0.0300, -0.2399, -0.7612
1492035487.4917299747,1492035487.4941549301, -0.0525, -0.0273,  0.0250,  0.0300, -0.2399, -0.7612
1492035487.4945309162,1492035487.4969580173, -0.0525, -0.0273,  0.0250, -0.0088, -0.2777, -0.7721
1492035487.4973349571,1492035487.4997670650, -0.1100, -0.0121,  0.0186, -0.0088, -0.2777, -0.7721
1492035487.5001521111,1492035487.5026121140, -0.1100, -0.0121,  0.0186, -0.0088, -0.2777, -0.7721
1492035487.5029909611,1492035487.5054140091, -0.1100, -0.0121,  0.0186, -0.0088, -0.2777, -0.7721
1492035487.5057909489,1492035487.5082149506, -0.1100, -0.0121,  0.0186, -0.0391, -0.3096, -0.7701
1492035487.5085940361,1492035487.5110330582, -0.1100, -0.0121,  0.0186, -0.0391, -0.3096, -0.7701
1492035487.5114119053,1492035487.5138409138, -0.1100, -0.0121,  0.0186, -0.0391, -0.3096, -0.7701
1492035487.5142168999,1492035487.5166459084, -0.1100, -0.0121,  0.0186, -0.0391, -0.3096, -0.7623
1492035487.5170240402,1492035487.5194499493, -0.1657,  0.0078,  0.0253, -0.0668, -0.3363, -0.7585
1492035487.5198280811,1492035487.5221529007, -0.1657,  0.0078,  0.0253, -0.0668, -0.3363, -0.7585
1492035487.5225229263,1492035487.5248219967, -0.1657,  0.0078,  0.0253, -0.0668, -0.3363, -0.7585
1492035487.5253040791,1492035487.5276100636, -0.1657,  0.0078,  0.0253, -0.0902, -0.3644, -0.7469
1492035487.5279810429,1492035487.5303950310, -0.1657,  0.0078,  0.0253, -0.0906, -0.3644, -0.7469
1492035487.5307660103,1492035487.5330638885, -0.1657,  0.0078,  0.0253, -0.0906, -0.3644, -0.7469
1492035487.5334351063,1492035487.5357339382, -0.1657,  0.0078,  0.0253, -0.0906, -0.3644, -0.7469
1492035487.5361020565,1492035487.5384058952, -0.1657,  0.0781,  0.0265, -0.0880, -0.3911, -0.7431
1492035487.5387730598,1492035487.5411400795, -0.2312,  0.0704,  0.0265, -0.0880, -0.3911, -0.7431
1492035487.5415160656,1492035487.5439391136, -0.2312,  0.0704,  0.0265, -0.0880, -0.3911, -0.7431
1492035487.5443150997,1492035487.5467391014, -0.2312,  0.0704,  0.0265, -0.0880, -0.3911, -0.7431
1492035487.5471150875,1492035487.5495350361, -0.2312,  0.0704,  0.0265, -0.0665, -0.4143, -0.7331
1492035487.5499100685,1492035487.5523428917, -0.2312,  0.0704,  0.0265, -0.0665, -0.4143, -0.7331
1492035487.5527200699,1492035487.5551459789, -0.2312,  0.0704,  0.0265, -0.0665, -0.4143, -0.7331
1492035487.5555200577,1492035487.5579490662, -0.2312,  0.0704, -0.0048, -0.0665, -0.4143, -0.7089
1492035487.5583260059,1492035487.5607500076, -0.3268,  0.2069, -0.0058, -0.0628, -0.4312, -0.7089
1492035487.5611269474,1492035487.5635490417, -0.3268,  0.2069, -0.0058, -0.0628, -0.4312, -0.7089
1492035487.5639269352,1492035487.5663468838, -0.3268,  0.2069, -0.0058, -0.0628, -0.4312, -0.7089
1492035487.5667231083,1492035487.5691440105, -0.3268,  0.2069, -0.0058, -0.0786, -0.4116, -0.6600
1492035487.5695209503,1492035487.5719470978, -0.3268,  0.2069, -0.0058, -0.0786, -0.4116, -0.6600
1492035487.5723268986,1492035487.5747480392, -0.3268,  0.2069, -0.0058, -0.0786, -0.4116, -0.6600
1492035487.5751249790,1492035487.5775489807, -0.3268,  0.2069, -0.0058, -0.0786, -0.4116, -0.6600
1492035487.5779259205,1492035487.5803380013, -0.4018,  0.3207, -0.0560, -0.1179, -0.3779, -0.6104
1492035487.5807070732,1492035487.5830059052, -0.4018,  0.3207, -0.0560, -0.1179, -0.3779, -0.6104
1492035487.5833768845,1492035487.5856719017, -0.4018,  0.3207, -0.0560, -0.1179, -0.3779, -0.6104
1492035487.5860409737,1492035487.5883440971, -0.4018,  0.3207, -0.0560, -0.1179, -0.3779, -0.6104
1492035487.5887138844,1492035487.5910758972, -0.4018,  0.3207, -0.0560, -0.1221, -0.3031, -0.5436
1492035487.5914530754,1492035487.5938789845, -0.4018,  0.3207, -0.0560, -0.1221, -0.3031, -0.5436
1492035487.5942559242,1492035487.5966789722, -0.4018,  0.3207, -0.0560, -0.1221, -0.3031, -0.5436
1492035487.5970571041,1492035487.5994799137, -0.4555,  0.5142, -0.1251, -0.1221, -0.2082, -0.4454
1492035487.5998558998,1492035487.6022930145, -0.4555,  0.5142, -0.1251, -0.0855, -0.2082, -0.4454
1492035487.6026690006,1492035487.6050910950, -0.4555,  0.5142, -0.1251, -0.0855, -0.2082, -0.4454
1492035487.6054689884,1492035487.6078929901, -0.4555,  0.5142, -0.1251, -0.0855, -0.2082, -0.4454
1492035487.6082699299,1492035487.6107089520, -0.4555,  0.5142, -0.1251, -0.0267, -0.1388, -0.3620
1492035487.6110839844,1492035487.6135089397, -0.4555,  0.5142, -0.1251, -0.0267, -0.1388, -0.3620
1492035487.6138870716,1492035487.6163120270, -0.4555,  0.5142, -0.1251, -0.0267, -0.1388, -0.3620
1492035487.6166889668,1492035487.6191139221, -0.3309,  0.6710, -0.0817, -0.0267, -0.1388, -0.3620
1492035487.6194911003,1492035487.6219329834, -0.3309,  0.6710, -0.0817,  0.0785, -0.0998, -0.3245
1492035487.6223120689,1492035487.6247398853, -0.3309,  0.6710, -0.0817,  0.0785, -0.0998, -0.3245
1492035487.6251161098,1492035487.6275401115, -0.3309,  0.6710, -0.0817,  0.0785, -0.0998, -0.3245
1492035487.6279180050,1492035487.6303501129, -0.3309,  0.6710, -0.0817,  0.0785, -0.0841, -0.2358
1492035487.6307189465,1492035487.6330199242, -0.3309,  0.6710, -0.0817,  0.1732, -0.0837, -0.2358
1492035487.6333909035,1492035487.6356871128, -0.3309,  0.6710, -0.0817,  0.1732, -0.0837, -0.2358
1492035487.6360549927,1492035487.6383531094, -0.1841,  0.4878, -0.0844,  0.1732, -0.0837, -0.2358
1492035487.6388220787,1492035487.6411650181, -0.1841,  0.4878, -0.0844,  0.2223, -0.0494, -0.1264
1492035487.6415340900,1492035487.6438300610, -0.1841,  0.4878, -0.0844,  0.2223, -0.0494, -0.1264
1492035487.6441979408,1492035487.6464939117, -0.1841,  0.4878, -0.0844,  0.2223, -0.0494, -0.1264
1492035487.6468629837,1492035487.6491580009, -0.1841,  0.4878, -0.0844,  0.2223, -0.0494, -0.1264
1492035487.6495261192,1492035487.6519498825, -0.1841,  0.4878, -0.0844,  0.2812,  0.0121, -0.0139
1492035487.6523289680,1492035487.6547539234, -0.1841,  0.4878, -0.0844,  0.2812,  0.0121, -0.0139
1492035487.6551299095,1492035487.6575539112, -0.1841,  0.3239, -0.2262,  0.2812,  0.0121, -0.0139
1492035487.6579310894,1492035487.6603610516, -0.1065,  0.3239, -0.2262,  0.2812,  0.0121, -0.0139
1492035487.6607379913,1492035487.6631610394, -0.1065,  0.3239, -0.2262,  0.3080,  0.0524,  0.0720
1492035487.6635389328,1492035487.6659638882, -0.1065,  0.3239, -0.2262,  0.3080,  0.0524,  0.0720
1492035487.6663410664,1492035487.6687700748, -0.1065,  0.3239, -0.2262,  0.3080,  0.0524,  0.0720
1492035487.6691451073,1492035487.6715750694, -0.1065,  0.3239, -0.2262,  0.3080,  0.0609,  0.0956
1492035487.6719520092,1492035487.6743750572, -0.1065,  0.3239, -0.2262,  0.2828,  0.0609,  0.0956
1492035487.6747529507,1492035487.6771750450, -0.1065,  0.0505, -0.2880,  0.2828,  0.0609,  0.0956
1492035487.6775500774,1492035487.6799719334, -0.2598,  0.0473, -0.2880,  0.2828,  0.0609,  0.0956
1492035487.6803879738,1492035487.6828119755, -0.2598,  0.0473, -0.2880,  0.2169,  0.0635,  0.0074
1492035487.6831889153,1492035487.6856129169, -0.2598,  0.0473, -0.2880,  0.2169,  0.0635,  0.0074
1492035487.6859900951,1492035487.6884150505, -0.2598,  0.0473, -0.2880,  0.2169,  0.0635,  0.0074
1492035487.6887900829,1492035487.6911680698, -0.2598,  0.0473, -0.2880,  0.2169,  0.0635,  0.0074
1492035487.6915359497,1492035487.6938409805, -0.2598,  0.0473, -0.2880, -0.0356,  0.3165,  0.2003
1492035487.6942090988,1492035487.6965088844, -0.2598,  0.0473,  0.3527, -0.0356,  0.3165,  0.2003
1492035487.6968779564,1492035487.6991770267, -0.5585,  0.2110,  0.3547, -0.0356,  0.3165,  0.2003
1492035487.6995460987,1492035487.7019529343, -0.5585,  0.2110,  0.3547, -0.0356,  0.3165,  0.6326
1492035487.7023289204,1492035487.7047541142, -0.5585,  0.2110,  0.3547, -0.4793, -0.3698,  0.6326
1492035487.7051279545,1492035487.7075529099, -0.5585,  0.2110,  0.3547, -0.4793, -0.3698,  0.6326
1492035487.7079300880,1492035487.7103590965, -0.5585,  0.2110,  0.3547, -0.4793, -0.3698,  0.6326
1492035487.7107319832,1492035487.7131578922, -0.5585,  0.2110,  0.3547, -0.0452, -0.0618,  0.6187
1492035487.7135329247,1492035487.7159569263, -0.5585,  0.2110,  0.3547, -0.0452, -0.0618,  0.6187
1492035487.7163310051,1492035487.7187550068, -0.8022, -0.2330,  0.1196, -0.0452, -0.0618,  0.6187
1492035487.7191329002,1492035487.7215631008, -0.8022, -0.2330,  0.1196, -0.0452, -0.0618,  0.6187
1492035487.7219400406,1492035487.7243630886, -0.8022, -0.2330,  0.1196,  0.0937,  0.2422,  0.3328
1492035487.7247378826,1492035487.7271618843, -0.8022, -0.2330,  0.1196,  0.0937,  0.2422,  0.3328
1492035487.7275400162,1492035487.7299680710, -0.8022, -0.2330,  0.1196,  0.0937,  0.2422,  0.3328
1492035487.7303891182,1492035487.7328069210, -0.8022, -0.2330,  0.1196,  0.0937,  0.2422,  0.6328
1492035487.7331829071,1492035487.7356059551, -0.8022, -0.2330,  0.1196, -0.1598,  0.0951,  0.6328
1492035487.7359840870,1492035487.7384059429,  0.1002,  0.5014, -0.0471, -0.1598,  0.0951,  0.6328
1492035487.7387828827,1492035487.7411909103,  0.1002,  0.5014, -0.0471, -0.1598,  0.0951,  0.6328
1492035487.7415618896,1492035487.7438681126,  0.1002,  0.5014, -0.0471, -0.3226,  0.2195,  0.8306
1492035487.7442378998,1492035487.7465350628,  0.1002,  0.5014, -0.0471, -0.3226,  0.2195,  0.8306
1492035487.7469038963,1492035487.7492039204,  0.1002,  0.5014, -0.0471, -0.3226,  0.2195,  0.8306
1492035487.7495760918,1492035487.7521278858,  0.1002,  0.5014, -0.0471, -0.3226,  0.2195,  0.8306
1492035487.7525050640,1492035487.7549209595,  0.1002,  0.5014, -0.0471, -0.0583,  0.6165,  0.5159
1492035487.7554109097,1492035487.7578299046,  0.0706,  0.2875, -0.2925, -0.0583,  0.6165,  0.5159
1492035487.7582058907,1492035487.7606189251,  0.0706,  0.2875, -0.2925, -0.0583,  0.6165,  0.5159
1492035487.7609930038,1492035487.7634658813,  0.0706,  0.2875, -0.2925, -0.0583,  0.6165,  0.4612
1492035487.7638430595,1492035487.7662620544,  0.0706,  0.2875, -0.2925,  0.4591, -0.0511,  0.4618
1492035487.7666370869,1492035487.7690520287,  0.0706,  0.2875, -0.2925,  0.4591, -0.0511,  0.4618
1492035487.7694280148,1492035487.7718389034,  0.0706,  0.2875, -0.2925,  0.4591, -0.0511,  0.4618
1492035487.7722508907,1492035487.7746739388,  0.0706,  0.2875, -0.2925,  0.5294, -0.4764,  0.2256
1492035487.7750489712,1492035487.7774679661, -0.3099, -0.0333,  0.1673,  0.5297, -0.4764,  0.2256
1492035487.7778439522,1492035487.7802848816, -0.3099, -0.0333,  0.1673,  0.5297, -0.4764,  0.2256
1492035487.7806599140,1492035487.7830889225, -0.3099, -0.0333,  0.1673,  0.5297, -0.4764,  0.2256
1492035487.7834649086,1492035487.7858951092, -0.3099, -0.0333,  0.1673,  0.2333, -0.2328, -0.1709
1492035487.7862710953,1492035487.7886950970, -0.3099, -0.0333,  0.1673,  0.2333, -0.2328, -0.1709
1492035487.7890729904,1492035487.7914390564, -0.3099, -0.0333,  0.1673,  0.2333, -0.2328, -0.1709
1492035487.7918090820,1492035487.7941129208, -0.3099, -0.0333,  0.1673,  0.2333, -0.2328, -0.1709
1492035487.7944819927,1492035487.7967820168, -0.2603,  0.1292,  0.0021,  0.3067,  0.3027,  0.0740
1492035487.7971539497,1492035487.7994520664, -0.2603,  0.1292,  0.0021,  0.3067,  0.3027,  0.0740
1492035487.7998189926,1492035487.8022758961, -0.2603,  0.1292,  0.0021,  0.3067,  0.3027,  0.0740
1492035487.8026540279,1492035487.8050858974, -0.2603,  0.1292,  0.0021,  0.3067,  0.2402,  0.1984
1492035487.8054618835,1492035487.8078930378, -0.2603,  0.1292,  0.0021,  0.2234,  0.2368,  0.1984
1492035487.8082690239,1492035487.8107089996, -0.2603,  0.1292,  0.0021,  0.2234,  0.2368,  0.1984
1492035487.8110840321,1492035487.8135049343, -0.2603,  0.1292,  0.0021,  0.2234,  0.2368,  0.1984
1492035487.8138809204,1492035487.8163039684, -0.2603,  0.1247, -0.0908,  0.2540,  0.1861,  0.1248
1492035487.8166821003,1492035487.8191111088, -0.3358,  0.1247, -0.0908,  0.2540,  0.1861,  0.1248
1492035487.8194880486,1492035487.8219220638, -0.3358,  0.1247, -0.0908,  0.2540,  0.1861,  0.1248
1492035487.8222990036,1492035487.8247270584, -0.3358,  0.1247, -0.0908,  0.2540,  0.1861,  0.1248
1492035487.8251049519,1492035487.8275289536, -0.3358,  0.1247, -0.0908,  0.1601,  0.1419,  0.1058
1492035487.8279058933,1492035487.8303349018, -0.3358,  0.1247, -0.0908,  0.1601,  0.1419,  0.1058
1492035487.8307108879,1492035487.8331370354, -0.3358,  0.1247, -0.0908,  0.1601,  0.1419,  0.1058
1492035487.8335139751,1492035487.8359420300, -0.3358,  0.0860,  0.0055,  0.1601,  0.1731,  0.0839
1492035487.8363189697,1492035487.8387451172, -0.3549,  0.0860,  0.0055,  0.1591,  0.1724,  0.0839
1492035487.8391220570,1492035487.8414680958, -0.3549,  0.0860,  0.0055,  0.1591,  0.1724,  0.0839
1492035487.8418400288,1492035487.8441340923, -0.3549,  0.0860,  0.0055,  0.1591,  0.1724,  0.0839
1492035487.8445050716,1492035487.8468039036, -0.3549,  0.0860,  0.0055,  0.1515,  0.1546,  0.0350
1492035487.8471760750,1492035487.8494729996, -0.3549,  0.0860,  0.0055,  0.1515,  0.1546,  0.0350
1492035487.8498420715,1492035487.8522830009, -0.3549,  0.0860,  0.0055,  0.1515,  0.1546,  0.0350
1492035487.8526599407,1492035487.8550949097, -0.3549,  0.0860,  0.0992,  0.1515,  0.1546,  0.0350
1492035487.8554720879,1492035487.8578989506, -0.4612, -0.0012,  0.0970,  0.1393,  0.1471, -0.0344
1492035487.8582789898,1492035487.8607089520, -0.4612, -0.0012,  0.0970,  0.1393,  0.1471, -0.0344
1492035487.8610858917,1492035487.8635120392, -0.4612, -0.0012,  0.0970,  0.1393,  0.1471, -0.0344
1492035487.8638889790,1492035487.8663179874, -0.4612, -0.0012,  0.0970,  0.1393,  0.1471,  0.0437
1492035487.8666980267,1492035487.8691229820, -0.4612, -0.0012,  0.0970,  0.0688,  0.1631,  0.0428
1492035487.8694989681,1492035487.8719279766, -0.4612, -0.0012,  0.0970,  0.0688,  0.1631,  0.0428
1492035487.8724119663,1492035487.8748409748, -0.4612, -0.0012,  0.0970,  0.0688,  0.1631,  0.0428
1492035487.8752200603,1492035487.8776500225, -0.4229, -0.1541,  0.2076,  0.0065,  0.1307,  0.0499
1492035487.8780279160,1492035487.8804669380, -0.4229, -0.1541,  0.2076,  0.0065,  0.1307,  0.0499
1492035487.8808441162,1492035487.8832709789, -0.4229, -0.1541,  0.2076,  0.0065,  0.1307,  0.0499
1492035487.8836500645,1492035487.8860740662, -0.4229, -0.1541,  0.2076,  0.0065,  0.1307,  0.0499
1492035487.8864500523,1492035487.8888790607, -0.4229, -0.1541,  0.2076,  0.0432,  0.1002,  0.0531
1492035487.8892540932,1492035487.8916110992, -0.4229, -0.1541,  0.2076,  0.0432,  0.1002,  0.0531
1492035487.8919799328,1492035487.8942830563, -0.4229, -0.1541,  0.2076,  0.0432,  0.1002,  0.0531
1492035487.8946530819,1492035487.8969519138, -0.2508, -0.2424,  0.1971,  0.0432,  0.1002,  0.0531
1492035487.8973209858,1492035487.8996200562, -0.2508, -0.2424,  0.1971,  0.1128,  0.0659,  0.0396
1492035487.9000558853,1492035487.9023559093, -0.2508, -0.2424,  0.1971,  0.1128,  0.0659,  0.0396
1492035487.9027240276,1492035487.9050180912, -0.2508, -0.2424,  0.1971,  0.1128,  0.0659,  0.0396
1492035487.9053859711,1492035487.9076850414, -0.2508, -0.2424,  0.1971,  0.1128,  0.0659,  0.0034
1492035487.9080560207,1492035487.9104280472, -0.2508, -0.2424,  0.1971,  0.1921, -0.0047,  0.0034
1492035487.9108068943,1492035487.9132320881, -0.2508, -0.2424,  0.1971,  0.1921, -0.0047,  0.0034
1492035487.9136080742,1492035487.9160308838, -0.3102,  0.0491, -0.0832,  0.1921, -0.0047,  0.0034
1492035487.9164080620,1492035487.9188330173, -0.3102,  0.0491, -0.0832,  0.2656,  0.0625,  0.0283
1492035487.9192121029,1492035487.9216461182, -0.3102,  0.0491, -0.0832,  0.2656,  0.0625,  0.0283
1492035487.9220240116,1492035487.9244489670, -0.3102,  0.0491, -0.0832,  0.2656,  0.0625,  0.0283
1492035487.9248249531,1492035487.9272539616, -0.3102,  0.0491, -0.0832,  0.2656,  0.0625,  0.0283
1492035487.9276320934,1492035487.9300730228, -0.3102,  0.0491, -0.0832,  0.1309,  0.1720,  0.1743
1492035487.9304509163,1492035487.9328749180, -0.3102,  0.0491, -0.0832,  0.1309,  0.1720,  0.1743
1492035487.9332499504,1492035487.9356799126, -0.1470,  0.2599,  0.1048,  0.1309,  0.1720,  0.1743
1492035487.9360570908,1492035487.9384870529, -0.1470,  0.2599,  0.1048,  0.1309,  0.1720,  0.2368
1492035487.9388608932,1492035487.9412369728, -0.1470,  0.2599,  0.1048, -0.0189,  0.1345,  0.2411
1492035487.9416069984,1492035487.9439051151, -0.1470,  0.2599,  0.1048, -0.0189,  0.1345,  0.2411
1492035487.9442729950,1492035487.9465749264, -0.1470,  0.2599,  0.1048, -0.0189,  0.1345,  0.2411
1492035487.9469439983,1492035487.9492390156, -0.1470,  0.2599,  0.1048, -0.0189,  0.1657,  0.2307
1492035487.9496099949,1492035487.9520480633, -0.1470,  0.2599,  0.1048,  0.0659,  0.1687,  0.2307
1492035487.9524219036,1492035487.9548339844, -0.1470, -0.0755,  0.0728,  0.0659,  0.1687,  0.2307
1492035487.9552080631,1492035487.9576170444, -0.2071, -0.0755,  0.0728,  0.0659,  0.1687,  0.2307
1492035487.9579908848,1492035487.9604430199, -0.2071, -0.0755,  0.0728,  0.1532,  0.1667,  0.2359
1492035487.9608180523,1492035487.9632279873, -0.2071, -0.0755,  0.0728,  0.1532,  0.1667,  0.2359
1492035487.9636030197,1492035487.9660089016, -0.2071, -0.0755,  0.0728,  0.1532,  0.1667,  0.2359
1492035487.9663820267,1492035487.9687919617, -0.2071, -0.0755,  0.0728,  0.1532,  0.1667,  0.2359
1492035487.9691669941,1492035487.9716260433, -0.2071, -0.0755,  0.0728,  0.1428,  0.1854,  0.3408
1492035487.9719998837,1492035487.9744091034, -0.2071, -0.0755, -0.0241,  0.1428,  0.1854,  0.3408
1492035487.9747850895,1492035487.9771940708, -0.2281,  0.0089, -0.0241,  0.1428,  0.1854,  0.3408
1492035487.9775700569,1492035487.9800710678, -0.2281,  0.0089, -0.0241,  0.1428,  0.1854,  0.4334
1492035487.9804461002,1492035487.9828329086, -0.2281,  0.0089, -0.0241, -0.0466,  0.2462,  0.4334
1492035487.9832069874,1492035487.9855940342, -0.2281,  0.0089, -0.0241, -0.0466,  0.2462,  0.4334
1492035487.9859690666,1492035487.9883570671, -0.2281,  0.0089, -0.0241, -0.0466,  0.2462,  0.4334
1492035487.9888370037,1492035487.9912180901, -0.2281,  0.0089, -0.0241, -0.0961,  0.2341,  0.4442
1492035487.9915890694,1492035487.9938879013, -0.2281,  0.0089,  0.1555, -0.0961,  0.2341,  0.4442
1492035487.9942569733,1492035487.9965589046, -0.2852, -0.0922,  0.1517, -0.0961,  0.2341,  0.4442
1492035487.9969289303,1492035487.9992260933, -0.2852, -0.0922,  0.1517, -0.0961,  0.2341,  0.4442
1492035487.9995980263,1492035488.0020649433, -0.2852, -0.0922,  0.1517, -0.0178,  0.2036,  0.4496
1492035488.0024418831,1492035488.0048739910, -0.2852, -0.0922,  0.1517, -0.0178,  0.2036,  0.4496
1492035488.0052499771,1492035488.0076749325, -0.2852, -0.0922,  0.1517, -0.0178,  0.2036,  0.4496
1492035488.0080521107,1492035488.0104970932, -0.2852, -0.0922,  0.1517, -0.0178,  0.2036,  0.4496
1492035488.0108740330,1492035488.0132999420, -0.2852, -0.0922,  0.1517,  0.0543,  0.2357,  0.4527
1492035488.0136768818,1492035488.0161058903, -0.4273, -0.1451,  0.0673,  0.0543,  0.2357,  0.4527
1492035488.0164809227,1492035488.0189070702, -0.4273, -0.1451,  0.0673,  0.0543,  0.2357,  0.4527
1492035488.0192849636,1492035488.0216429234, -0.4273, -0.1451,  0.0673,  0.0740,  0.2853,  0.4637
1492035488.0220119953,1492035488.0243110657, -0.4273, -0.1451,  0.0673,  0.0740,  0.2853,  0.4637
1492035488.0246789455,1492035488.0269780159, -0.4273, -0.1451,  0.0673,  0.0740,  0.2853,  0.4637
1492035488.0273439884,1492035488.0296459198, -0.4273, -0.1451,  0.0673,  0.0740,  0.2853,  0.4637
1492035488.0300569534,1492035488.0324809551, -0.4273, -0.1451,  0.0673,  0.0987,  0.3025,  0.4633
1492035488.0328590870,1492035488.0352890491, -0.3619, -0.1195,  0.0992,  0.0987,  0.3025,  0.4633
1492035488.0356659889,1492035488.0380909443, -0.3619, -0.1195,  0.0992,  0.0987,  0.3025,  0.4633
1492035488.0384669304,1492035488.0408599377, -0.3619, -0.1195,  0.0992,  0.0987,  0.3025,  0.4633
1492035488.0412330627,1492035488.0435290337, -0.3619, -0.1195,  0.0992,  0.1084,  0.3112,  0.4424
1492035488.0439000130,1492035488.0461990833, -0.3619, -0.1195,  0.0992,  0.1084,  0.3112,  0.4424
1492035488.0465679169,1492035488.0488710403, -0.3619, -0.1195,  0.0992,  0.1084,  0.3112,  0.4424
1492035488.0492401123,1492035488.0516750813, -0.3619, -0.1195,  0.0992,  0.1084,  0.3112,  0.4190
1492035488.0520529747,1492035488.0544760227, -0.3650, -0.1662,  0.1215,  0.0990,  0.3127,  0.4172
1492035488.0548539162,1492035488.0572850704, -0.3650, -0.1662,  0.1215,  0.0990,  0.3127,  0.4172
1492035488.0576620102,1492035488.0600988865, -0.3650, -0.1662,  0.1215,  0.0990,  0.3127,  0.4172
1492035488.0604770184,1492035488.0629019737, -0.3650, -0.1662,  0.1215,  0.0786,  0.3190,  0.3997
1492035488.0632789135,1492035488.0657041073, -0.3650, -0.1662,  0.1215,  0.0786,  0.3190,  0.3997
1492035488.0660800934,1492035488.0685091019, -0.3650, -0.1662,  0.1215,  0.0786,  0.3190,  0.3997
1492035488.0688838959,1492035488.0713179111, -0.3650, -0.1662,  0.1215,  0.0786,  0.3190,  0.3997
1492035488.0716960430,1492035488.0741178989, -0.3650, -0.1599,  0.0415,  0.0502,  0.3303,  0.3787
1492035488.0744960308,1492035488.0769219398, -0.3648, -0.1599,  0.0415,  0.0502,  0.3303,  0.3787
1492035488.0772979259,1492035488.0797228813, -0.3648, -0.1599,  0.0415,  0.0502,  0.3303,  0.3787
1492035488.0801088810,1492035488.0825350285, -0.3648, -0.1599,  0.0415,  0.0502,  0.3303,  0.3240
1492035488.0829100609,1492035488.0853369236, -0.3648, -0.1599,  0.0415,  0.0222,  0.3367,  0.3235
1492035488.0857119560,1492035488.0881400108, -0.3648, -0.1599,  0.0415,  0.0222,  0.3367,  0.3235
1492035488.0885150433,1492035488.0908980370, -0.3648, -0.1599,  0.0415,  0.0222,  0.3367,  0.3235
1492035488.0912680626,1492035488.0935690403, -0.3648, -0.0906,  0.0998, -0.0638,  0.2957,  0.2373
1492035488.0939369202,1492035488.0962369442, -0.2840, -0.0906,  0.0998, -0.0643,  0.2957,  0.2373
1492035488.0966060162,1492035488.0989110470, -0.2840, -0.0906,  0.0998, -0.0643,  0.2957,  0.2373
1492035488.0992789268,1492035488.1016941071, -0.2840, -0.0906,  0.0998, -0.0643,  0.2957,  0.2373
1492035488.1020700932,1492035488.1044979095, -0.2840, -0.0906,  0.0998, -0.1314,  0.2445,  0.1750
1492035488.1049818993,1492035488.1074109077, -0.2840, -0.0906,  0.0998, -0.1314,  0.2445,  0.1750
1492035488.1077899933,1492035488.1102249622, -0.2840, -0.0906,  0.0998, -0.1314,  0.2445,  0.1750
1492035488.1106019020,1492035488.1130270958, -0.2840, -0.0906,  0.0711, -0.1314,  0.2445,  0.1750
1492035488.1134040356,1492035488.1158320904, -0.1347, -0.1052,  0.0711, -0.1820,  0.2094,  0.1142
1492035488.1162109375,1492035488.1186358929, -0.1347, -0.1052,  0.0711, -0.1820,  0.2094,  0.1142
1492035488.1190130711,1492035488.1214799881, -0.1347, -0.1052,  0.0711, -0.1820,  0.2094,  0.1142
1492035488.1218590736,1492035488.1242849827, -0.1347, -0.1052,  0.0711, -0.1820,  0.1726,  0.0232
1492035488.1246619225,1492035488.1270880699, -0.1347, -0.1052,  0.0711, -0.2118,  0.1726,  0.0232
1492035488.1274650097,1492035488.1298909187, -0.1347, -0.1052,  0.0711, -0.2118,  0.1726,  0.0232
1492035488.1302740574,1492035488.1327099800, -0.1347, -0.1052,  0.0555, -0.2118,  0.1726,  0.0232
1492035488.1330869198,1492035488.1355149746, -0.0490, -0.0371,  0.0551, -0.2286,  0.1282, -0.0905
1492035488.1358909607,1492035488.1383190155, -0.0490, -0.0371,  0.0551, -0.2286,  0.1282, -0.0905
1492035488.1386959553,1492035488.1410810947, -0.0490, -0.0371,  0.0551, -0.2286,  0.1282, -0.0905
1492035488.1414499283,1492035488.1437509060, -0.0490, -0.0371,  0.0551, -0.2286,  0.1282, -0.0905
1492035488.1441199780,1492035488.1464250088, -0.0490, -0.0371,  0.0551, -0.2338,  0.0897, -0.2130
1492035488.1467928886,1492035488.1490991116, -0.0490, -0.0371,  0.0551, -0.2338,  0.0897, -0.2130
1492035488.1494679451,1492035488.1517910957, -0.0490, -0.0371,  0.0551, -0.2338,  0.0897, -0.2130
1492035488.1521630287,1492035488.1544570923,  0.0189,  0.0246,  0.0402, -0.2338,  0.0897, -0.3146
1492035488.1548271179,1492035488.1571218967,  0.0189,  0.0246,  0.0402, -0.2050,  0.0561, -0.3174
1492035488.1574900150,1492035488.1597890854,  0.0189,  0.0246,  0.0402, -0.2050,  0.0561, -0.3174
1492035488.1601650715,1492035488.1625890732,  0.0189,  0.0246,  0.0402, -0.2050,  0.0561, -0.3174
1492035488.1629641056,1492035488.1653940678,  0.0189,  0.0246,  0.0402, -0.2050,  0.0092, -0.4254
1492035488.1657741070,1492035488.1682019234,  0.0189,  0.0246,  0.0402, -0.1427,  0.0079, -0.4254
1492035488.1685791016,1492035488.1710519791,  0.0189,  0.0246,  0.0402, -0.1427,  0.0079, -0.4254
1492035488.1714289188,1492035488.1738569736,  0.0443,  0.0457,  0.0841, -0.1427,  0.0079, -0.4254
1492035488.1742351055,1492035488.1766610146,  0.0443,  0.0457,  0.0841, -0.1062, -0.0424, -0.5424
1492035488.1770370007,1492035488.1794619560,  0.0443,  0.0457,  0.0841, -0.1062, -0.0424, -0.5424
1492035488.1798379421,1492035488.1822760105,  0.0443,  0.0457,  0.0841, -0.1062, -0.0424, -0.5424
1492035488.1826519966,1492035488.1850810051,  0.0443,  0.0457,  0.0841, -0.1062, -0.0424, -0.5424
1492035488.1854569912,1492035488.1878900528,  0.0443,  0.0457,  0.0841, -0.0939, -0.1028, -0.6326
1492035488.1882660389,1492035488.1906750202,  0.0443,  0.0457,  0.0841, -0.0939, -0.1028, -0.6326
1492035488.1910429001,1492035488.1933410168, -0.0649, -0.0131,  0.0589, -0.0939, -0.1028, -0.6326
1492035488.1937119961,1492035488.1960139275, -0.0649, -0.0131,  0.0589, -0.0939, -0.1028, -0.6972
1492035488.1963849068,1492035488.1986811161, -0.0649, -0.0131,  0.0589, -0.0822, -0.1514, -0.6972
1492035488.1990499496,1492035488.2014729977, -0.0649, -0.0131,  0.0589, -0.0822, -0.1514, -0.6972
1492035488.2018480301,1492035488.2042779922, -0.0649, -0.0131,  0.0589, -0.0822, -0.1514, -0.6972
1492035488.2046549320,1492035488.2070779800, -0.0649, -0.0131,  0.0589, -0.0613, -0.1819, -0.7364
1492035488.2074539661,1492035488.2098839283, -0.0649, -0.0131,  0.0589, -0.0613, -0.1819, -0.7364
1492035488.2102599144,1492035488.2126879692, -0.0649, -0.0050,  0.0614, -0.0613, -0.1819, -0.7364
1492035488.2130639553,1492035488.2154870033, -0.1273, -0.0050,  0.0614, -0.0613, -0.1819, -0.7364
1492035488.2158660889,1492035488.2182939053, -0.1273, -0.0050,  0.0614, -0.0433, -0.2092, -0.7639
1492035488.2187719345,1492035488.2212359905, -0.1273, -0.0050,  0.0614, -0.0433, -0.2092, -0.7639
1492035488.2216119766,1492035488.2240309715, -0.1273, -0.0050,  0.0614, -0.0433, -0.2092, -0.7639
1492035488.2244079113,1492035488.2268350124, -0.1273, -0.0050,  0.0614, -0.0433, -0.2092, -0.7807
1492035488.2272129059,1492035488.2296390533, -0.1273, -0.0050,  0.0614, -0.0534, -0.2417, -0.7807
1492035488.2300250530,1492035488.2324569225, -0.1273, -0.0404,  0.0462, -0.0534, -0.2417, -0.7807
1492035488.2328341007,1492035488.2352681160, -0.1480, -0.0404,  0.0462, -0.0534, -0.2417, -0.7807
1492035488.2356450558,1492035488.2380709648, -0.1480, -0.0404,  0.0462, -0.0742, -0.2758, -0.7969
1492035488.2384459972,1492035488.2408471107, -0.1480, -0.0404,  0.0462, -0.0742, -0.2758, -0.7969
1492035488.2412149906,1492035488.2435181141, -0.1480, -0.0404,  0.0462, -0.0742, -0.2758, -0.7969
1492035488.2438869476,1492035488.2461879253, -0.1480, -0.0404,  0.0462, -0.0742, -0.2758, -0.7969
1492035488.2465560436,1492035488.2488579750, -0.1480, -0.0404,  0.0462, -0.0787, -0.3078, -0.8101
1492035488.2492280006,1492035488.2516870499, -0.1480, -0.0404,  0.0553, -0.0787, -0.3078, -0.8101
1492035488.2520630360,1492035488.2544929981, -0.1903, -0.0224,  0.0553, -0.0787, -0.3078, -0.8101
1492035488.2548720837,1492035488.2573060989, -0.1903, -0.0224,  0.0553, -0.0787, -0.3078, -0.8179
1492035488.2576830387,1492035488.2601239681, -0.1903, -0.0224,  0.0553, -0.0736, -0.3380, -0.8167
1492035488.2604990005,1492035488.2629299164, -0.1903, -0.0224,  0.0553, -0.0736, -0.3380, -0.8167
1492035488.2633070946,1492035488.2657270432, -0.1903, -0.0224,  0.0553, -0.0736, -0.3380, -0.8167
1492035488.2661030293,1492035488.2685279846, -0.1903, -0.0224,  0.0553, -0.0658, -0.3668, -0.8175
1492035488.2689061165,1492035488.2712869644, -0.1903, -0.0224,  0.0710, -0.0665, -0.3668, -0.8175
1492035488.2716569901,1492035488.2739610672, -0.2272, -0.0156,  0.0769, -0.0665, -0.3668, -0.8175
1492035488.2743299007,1492035488.2766320705, -0.2272, -0.0156,  0.0769, -0.0665, -0.3668, -0.8175
1492035488.2769980431,1492035488.2792959213, -0.2272, -0.0156,  0.0769, -0.0574, -0.4008, -0.8173
1492035488.2796630859,1492035488.2820870876, -0.2272, -0.0156,  0.0769, -0.0574, -0.4008, -0.8173
1492035488.2824640274,1492035488.2848920822, -0.2272, -0.0156,  0.0769, -0.0574, -0.4008, -0.8173
1492035488.2852690220,1492035488.2876958847, -0.2272, -0.0156,  0.0769, -0.0574, -0.4008, -0.8173
1492035488.2880721092,1492035488.2904939651, -0.2272, -0.0156,  0.0769, -0.0249, -0.4236, -0.8120
1492035488.2908639908,1492035488.2931609154, -0.3411,  0.1327,  0.0419, -0.0249, -0.4236, -0.8120
1492035488.2935309410,1492035488.2958350182, -0.3411,  0.1327,  0.0419, -0.0249, -0.4236, -0.8120
1492035488.2962040901,1492035488.2985060215, -0.3411,  0.1327,  0.0419, -0.0249, -0.4236, -0.7807
1492035488.2988760471,1492035488.3012859821, -0.3411,  0.1327,  0.0419, -0.0156, -0.4268, -0.7771
1492035488.3016619682,1492035488.3040909767, -0.3411,  0.1327,  0.0419, -0.0156, -0.4268, -0.7771
1492035488.3044669628,1492035488.3068950176, -0.3411,  0.1327,  0.0419, -0.0156, -0.4268, -0.7771
1492035488.3072719574,1492035488.3096969128, -0.3411,  0.1327,  0.0419, -0.0234, -0.4216, -0.7307
1492035488.3100841045,1492035488.3125100136, -0.4238,  0.3004, -0.0531, -0.0187, -0.4216, -0.7307
1492035488.3128859997,1492035488.3153090477, -0.4238,  0.3004, -0.0531, -0.0187, -0.4216, -0.7307
1492035488.3156859875,1492035488.3181140423, -0.4238,  0.3004, -0.0531, -0.0187, -0.4216, -0.7307
1492035488.3184909821,1492035488.3209331036, -0.4238,  0.3004, -0.0531, -0.0321, -0.3848, -0.6857
1492035488.3213100433,1492035488.3237359524, -0.4238,  0.3004, -0.0531, -0.0321, -0.3848, -0.6857
1492035488.3241119385,1492035488.3265349865, -0.4238,  0.3004, -0.0531, -0.0321, -0.3848, -0.6857
1492035488.3269119263,1492035488.3293380737, -0.4238,  0.3004, -0.0531, -0.0321, -0.3848, -0.6075
1492035488.3297140598,1492035488.3321518898, -0.4809,  0.5106, -0.1098, -0.0645, -0.3055, -0.6094
1492035488.3325281143,1492035488.3349540234, -0.4809,  0.5106, -0.1098, -0.0645, -0.3055, -0.6094
1492035488.3354411125,1492035488.3378698826, -0.4809,  0.5106, -0.1098, -0.0645, -0.3055, -0.6094
1492035488.3382470608,1492035488.3406529427, -0.4809,  0.5106, -0.1098, -0.0257, -0.2030, -0.4991
1492035488.3410239220,1492035488.3433279991, -0.4809,  0.5106, -0.1098, -0.0257, -0.2030, -0.4991
1492035488.3436980247,1492035488.3459999561, -0.4809,  0.5106, -0.1098, -0.0257, -0.2030, -0.4991
1492035488.3463718891,1492035488.3486690521, -0.4809,  0.5106, -0.1098, -0.0257, -0.2030, -0.4991
1492035488.3490359783,1492035488.3514609337, -0.4340,  0.8213, -0.1197,  0.0269, -0.1250, -0.3800
1492035488.3518381119,1492035488.3542699814, -0.4306,  0.8213, -0.1197,  0.0269, -0.1250, -0.3800
1492035488.3546459675,1492035488.3570709229, -0.4306,  0.8213, -0.1197,  0.0269, -0.1250, -0.3800
1492035488.3574490547,1492035488.3598730564, -0.4306,  0.8213, -0.1197,  0.0269, -0.1250, -0.3800
1492035488.3602499962,1492035488.3626759052, -0.4306,  0.8213, -0.1197,  0.1142, -0.1411, -0.3151
1492035488.3630518913,1492035488.3654758930, -0.4306,  0.8213, -0.1197,  0.1142, -0.1411, -0.3151
1492035488.3658530712,1492035488.3682839870, -0.4306,  0.8213, -0.1197,  0.1142, -0.1411, -0.3151
1492035488.3686621189,1492035488.3710999489, -0.4306,  0.7659, -0.1530,  0.1142, -0.1020, -0.1858
1492035488.3714759350,1492035488.3739030361, -0.2140,  0.7659, -0.1530,  0.1612, -0.1045, -0.1858
1492035488.3742799759,1492035488.3767049313, -0.2140,  0.7659, -0.1530,  0.1612, -0.1045, -0.1858
1492035488.3770821095,1492035488.3795099258, -0.2140,  0.7659, -0.1530,  0.1612, -0.1045, -0.1858
1492035488.3798849583,1492035488.3823490143, -0.2140,  0.7659, -0.1530,  0.2080, -0.0067, -0.0396
1492035488.3827280998,1492035488.3851580620, -0.2140,  0.7659, -0.1530,  0.2080, -0.0067, -0.0396
1492035488.3855359554,1492035488.3879659176, -0.2140,  0.7659, -0.1530,  0.2080, -0.0067, -0.0396
1492035488.3883430958,1492035488.3907918930, -0.2140,  0.4769, -0.2548,  0.2080, -0.0067, -0.0396
1492035488.3911619186,1492035488.3934628963, -0.1393,  0.4790, -0.2548,  0.2502,  0.0412,  0.0693
1492035488.3938329220,1492035488.3961338997, -0.1393,  0.4790, -0.2548,  0.2502,  0.0412,  0.0693
1492035488.3965029716,1492035488.3988039494, -0.1393,  0.4790, -0.2548,  0.2502,  0.0412,  0.0693
1492035488.3991720676,1492035488.4015660286, -0.1393,  0.4790, -0.2548,  0.2502,  0.0412,  0.0907
1492035488.4019439220,1492035488.4043700695, -0.1393,  0.4790, -0.2548,  0.2425,  0.0115,  0.0907
1492035488.4047460556,1492035488.4071691036, -0.1393,  0.4790, -0.2548,  0.2425,  0.0115,  0.0907
1492035488.4075450897,1492035488.4099700451, -0.1393,  0.4790, -0.4891,  0.2425,  0.0115,  0.0907
1492035488.4103899002,1492035488.4128150940, -0.2163,  0.1056, -0.4898,  0.1214,  0.2661,  0.1757
1492035488.4131920338,1492035488.4156150818, -0.2163,  0.1056, -0.4898,  0.1214,  0.2661,  0.1757
1492035488.4159910679,1492035488.4184188843, -0.2163,  0.1056, -0.4898,  0.1214,  0.2661,  0.1757
1492035488.4187951088,1492035488.4212338924, -0.2163,  0.1056, -0.4898,  0.1214,  0.2661,  0.1757
1492035488.4216101170,1492035488.4240388870, -0.2163,  0.1056, -0.4898, -0.1561,  0.1992,  0.4250
1492035488.4244170189,1492035488.4268410206, -0.2163,  0.1056, -0.4898, -0.1561,  0.1992,  0.4250
1492035488.4272170067,1492035488.4296379089, -0.2163,  0.1056, -0.4898, -0.1561,  0.1992,  0.4250
1492035488.4300229549,1492035488.4324510098, -0.8633,  0.4481,  0.2850, -0.1561,  0.1992,  0.6246
1492035488.4328260422,1492035488.4352509975, -0.8633,  0.4481,  0.2850, -0.4377, -0.2567,  0.6246
1492035488.4356260300,1492035488.4380528927, -0.8633,  0.4481,  0.2850, -0.4377, -0.2567,  0.6246
1492035488.4384279251,1492035488.4408299923, -0.8633,  0.4481,  0.2850, -0.4377, -0.2567,  0.6246
1492035488.4411990643,1492035488.4435000420, -0.8633,  0.4481,  0.2850, -0.1541, -0.0452,  0.4756
1492035488.4438691139,1492035488.4461688995, -0.8633,  0.4481,  0.2850, -0.1541, -0.0452,  0.4756
1492035488.4465379715,1492035488.4488370419, -0.8633,  0.4481,  0.2850, -0.1541, -0.0452,  0.4756
1492035488.4492061138,1492035488.4516389370, -0.3764, -0.2155,  0.2180, -0.1541, -0.0452,  0.4756
1492035488.4521241188,1492035488.4545500278, -0.3764, -0.2155,  0.2180,  0.0563,  0.1463,  0.4289
1492035488.4549269676,1492035488.4573509693, -0.3764, -0.2155,  0.2180,  0.0563,  0.1463,  0.4289
1492035488.4577260017,1492035488.4601569176, -0.3764, -0.2155,  0.2180,  0.0563,  0.1463,  0.4289
1492035488.4605319500,1492035488.4629619122, -0.3764, -0.2155,  0.2180,  0.0563,  0.1463,  0.4289
1492035488.4633378983,1492035488.4657640457, -0.3764, -0.2155,  0.2180, -0.1975,  0.0250,  0.8626
1492035488.4661390781,1492035488.4685740471, -0.3764, -0.2155,  0.2180, -0.1975,  0.0250,  0.8626
1492035488.4689500332,1492035488.4714219570,  0.2211,  0.5641,  0.0262, -0.1975,  0.0250,  0.8626
1492035488.4717979431,1492035488.4742250443,  0.2211,  0.5641,  0.0262, -0.2834,  0.2573,  0.7708
1492035488.4746019840,1492035488.4770278931,  0.2211,  0.5641,  0.0262, -0.2874,  0.2573,  0.7708
1492035488.4774029255,1492035488.4798259735,  0.2211,  0.5641,  0.0262, -0.2874,  0.2573,  0.7708
1492035488.4802100658,1492035488.4825110435,  0.2211,  0.5641,  0.0262, -0.2874,  0.2573,  0.7708
1492035488.4828810692,1492035488.4851789474,  0.2211,  0.5641,  0.0262,  0.1619,  0.2664,  0.4149
1492035488.4855489731,1492035488.4878489971,  0.2211,  0.5641,  0.0262,  0.1619,  0.2664,  0.4149
1492035488.4882159233,1492035488.4905550480, -0.1749,  0.0934, -0.3636,  0.1619,  0.2664,  0.4149
1492035488.4909300804,1492035488.4933528900, -0.1749,  0.0934, -0.3636,  0.1619,  0.2664,  0.4149
1492035488.4937279224,1492035488.4961569309, -0.1749,  0.0934, -0.3636,  0.2976,  0.0025,  0.2773
1492035488.4965360165,1492035488.4989640713, -0.1749,  0.0934, -0.3636,  0.2976,  0.0025,  0.2773
1492035488.4993400574,1492035488.5017750263, -0.1749,  0.0934, -0.3636,  0.2976,  0.0025,  0.2773
1492035488.5021500587,1492035488.5045731068, -0.1749,  0.0934, -0.3636,  0.2976,  0.0025,  0.1941
1492035488.5049500465,1492035488.5073759556, -0.1749,  0.0934, -0.3636,  0.1312, -0.2258,  0.1941
1492035488.5077519417,1492035488.5102388859, -0.4076,  0.0616,  0.1555,  0.1312, -0.2258,  0.1941
1492035488.5106151104,1492035488.5130410194, -0.4076,  0.0616,  0.1555,  0.1312, -0.2258,  0.1941
1492035488.5134170055,1492035488.5158410072, -0.4076,  0.0616,  0.1555,  0.2912,  0.1501,  0.2095
1492035488.5162189007,1492035488.5186450481, -0.4076,  0.0616,  0.1555,  0.2912,  0.1501,  0.2095
1492035488.5190200806,1492035488.5214509964, -0.4076,  0.0616,  0.1555,  0.2912,  0.1501,  0.2095
1492035488.5218260288,1492035488.5242500305, -0.4076,  0.0616,  0.1555,  0.2912,  0.1501,  0.2095
1492035488.5246269703,1492035488.5270550251, -0.4076,  0.0616,  0.1555,  0.2144,  0.1602,  0.2956
1492035488.5274329185,1492035488.5298619270, -0.1888,  0.0964,  0.0155,  0.2144,  0.1602,  0.2956
1492035488.5302419662,1492035488.5325400829, -0.1932,  0.0964,  0.0155,  0.2144,  0.1602,  0.2956
1492035488.5329089165,1492035488.5352110863, -0.1932,  0.0964,  0.0155,  0.2144,  0.1602,  0.2487
1492035488.5355811119,1492035488.5378799438, -0.1932,  0.0964,  0.0155,  0.2106,  0.1174,  0.2479
1492035488.5382499695,1492035488.5406370163, -0.1932,  0.0964,  0.0155,  0.2106,  0.1174,  0.2479
1492035488.5410161018,1492035488.5434460640, -0.1932,  0.0964,  0.0155,  0.2106,  0.1174,  0.2479
1492035488.5438220501,1492035488.5462429523, -0.1932,  0.0964,  0.0155,  0.2106,  0.1125,  0.2232
1492035488.5466210842,1492035488.5490469933, -0.1932,  0.0964, -0.0107,  0.1690,  0.1125,  0.2232
1492035488.5494248867,1492035488.5518689156, -0.2406,  0.1268, -0.0107,  0.1690,  0.1125,  0.2232
1492035488.5522439480,1492035488.5546751022, -0.2406,  0.1268, -0.0107,  0.1690,  0.1125,  0.2232
1492035488.5550529957,1492035488.5574779510, -0.2406,  0.1268, -0.0107,  0.1604,  0.1164,  0.1976
1492035488.5578529835,1492035488.5602889061, -0.2406,  0.1268, -0.0107,  0.1604,  0.1164,  0.1976
1492035488.5606639385,1492035488.5630910397, -0.2406,  0.1268, -0.0107,  0.1604,  0.1164,  0.1976
1492035488.5634679794,1492035488.5658938885, -0.2406,  0.1268, -0.0107,  0.1604,  0.1164,  0.1976
1492035488.5662701130,1492035488.5686979294, -0.2406,  0.1268, -0.0210,  0.1562,  0.1270,  0.1700
1492035488.5691850185,1492035488.5715739727, -0.2747,  0.1241, -0.0210,  0.1562,  0.1270,  0.1700
1492035488.5719430447,1492035488.5742430687, -0.2747,  0.1241, -0.0210,  0.1562,  0.1270,  0.1700
1492035488.5746140480,1492035488.5769169331, -0.2747,  0.1241, -0.0210,  0.1562,  0.1349,  0.1418
1492035488.5772860050,1492035488.5795919895, -0.2747,  0.1241, -0.0210,  0.1626,  0.1333,  0.1418
1492035488.5799610615,1492035488.5824329853, -0.2747,  0.1241, -0.0210,  0.1626,  0.1333,  0.1418
1492035488.5828089714,1492035488.5852370262, -0.2747,  0.1241, -0.0210,  0.1626,  0.1333,  0.1418
1492035488.5856149197,1492035488.5880479813, -0.2747,  0.1241, -0.0210,  0.1804,  0.1339,  0.0527
1492035488.5884239674,1492035488.5908610821, -0.3741,  0.0841,  0.0247,  0.1804,  0.1339,  0.0527
1492035488.5912380219,1492035488.5936639309, -0.3741,  0.0841,  0.0247,  0.1804,  0.1339,  0.0527
1492035488.5940420628,1492035488.5964701176, -0.3741,  0.0841,  0.0247,  0.1804,  0.1339,  0.0527
1492035488.5968461037,1492035488.5992679596, -0.3741,  0.0841,  0.0247,  0.1758,  0.1277,  0.0108
1492035488.5996429920,1492035488.6020810604, -0.3741,  0.0841,  0.0247,  0.1758,  0.1277,  0.0108
1492035488.6024580002,1492035488.6048829556, -0.3741,  0.0841,  0.0247,  0.1758,  0.1277,  0.0108
1492035488.6052579880,1492035488.6076810360, -0.3741,  0.0841,  0.0247,  0.1758,  0.1121, -0.0279
1492035488.6080570221,1492035488.6104960442, -0.5193, -0.0095,  0.1277,  0.1594,  0.1172, -0.0279
1492035488.6108748913,1492035488.6133000851, -0.5193, -0.0095,  0.1277,  0.1594,  0.1172, -0.0279
1492035488.6136779785,1492035488.6161000729, -0.5193, -0.0095,  0.1277,  0.1594,  0.1172, -0.0279
1492035488.6164779663,1492035488.6189019680, -0.5193, -0.0095,  0.1277,  0.1108,  0.1047, -0.0030
1492035488.6192800999,1492035488.6216330528, -0.5193, -0.0095,  0.1277,  0.1108,  0.1047, -0.0030
1492035488.6220068932,1492035488.6243069172, -0.5193, -0.0095,  0.1277,  0.1108,  0.1047, -0.0030
1492035488.6246790886,1492035488.6269791126, -0.5193, -0.0095,  0.1277,  0.1108,  0.1047, -0.0030
1492035488.6273488998,1492035488.6296501160, -0.3758, -0.1355,  0.2337,  0.0298,  0.0977,  0.1113
1492035488.6300570965,1492035488.6325139999, -0.3758, -0.1355,  0.2337,  0.0298,  0.0977,  0.1113
1492035488.6328909397,1492035488.6353180408, -0.3758, -0.1355,  0.2337,  0.0298,  0.0977,  0.1113
1492035488.6356949806,1492035488.6381249428, -0.3758, -0.1355,  0.2337,  0.0298,  0.0977,  0.0722
1492035488.6385018826,1492035488.6409409046, -0.3758, -0.1355,  0.2337,  0.0252,  0.0771,  0.0758
1492035488.6413159370,1492035488.6437420845, -0.3758, -0.1355,  0.2337,  0.0252,  0.0771,  0.0758
1492035488.6441209316,1492035488.6465470791, -0.3758, -0.1355,  0.2337,  0.0252,  0.0771,  0.0758
1492035488.6469230652,1492035488.6493499279, -0.2085, -0.2070,  0.1909,  0.1451,  0.0439,  0.0347
1492035488.6497271061,1492035488.6521580219, -0.2085, -0.2070,  0.1909,  0.1451,  0.0439,  0.0347
1492035488.6525359154,1492035488.6549630165, -0.2085, -0.2070,  0.1909,  0.1451,  0.0439,  0.0347
1492035488.6553390026,1492035488.6577630043, -0.2085, -0.2070,  0.1909,  0.1451,  0.0439,  0.0347
1492035488.6581399441,1492035488.6606070995, -0.2085, -0.2070,  0.1909,  0.3328, -0.0063, -0.0320
1492035488.6609768867,1492035488.6632800102, -0.2085, -0.2070,  0.1909,  0.3328, -0.0063, -0.0320
1492035488.6636519432,1492035488.6659491062, -0.2085, -0.2070,  0.1909,  0.3328, -0.0063, -0.0320
1492035488.6663200855,1492035488.6686189175, -0.4531,  0.2203, -0.1214,  0.3328, -0.0063, -0.0320
1492035488.6689898968,1492035488.6713631153, -0.4531,  0.2203, -0.1214,  0.3827,  0.0002, -0.0169
1492035488.6717391014,1492035488.6741669178, -0.4531,  0.2203, -0.1214,  0.3827,  0.0002, -0.0169
1492035488.6745440960,1492035488.6769700050, -0.4531,  0.2203, -0.1214,  0.3827,  0.0002, -0.0169
1492035488.6773469448,1492035488.6797769070, -0.4531,  0.2203, -0.1214,  0.3827,  0.1487,  0.1360
1492035488.6801629066,1492035488.6825919151, -0.4531,  0.2203, -0.1214,  0.2533,  0.1509,  0.1360
1492035488.6829669476,1492035488.6853959560, -0.4531,  0.2203, -0.1214,  0.2533,  0.1509,  0.1360
1492035488.6858799458,1492035488.6883080006, -0.4531,  0.2130,  0.1205,  0.2533,  0.1509,  0.1360
1492035488.6886858940,1492035488.6911220551, -0.1741,  0.2130,  0.1205,  0.0301,  0.1216,  0.2081
1492035488.6914989948,1492035488.6939249039, -0.1741,  0.2130,  0.1205,  0.0301,  0.1216,  0.2081
1492035488.6943020821,1492035488.6967270374, -0.1741,  0.2130,  0.1205,  0.0301,  0.1216,  0.2081
1492035488.6971049309,1492035488.6995251179, -0.1741,  0.2130,  0.1205,  0.0301,  0.1216,  0.2081
1492035488.6999011040,1492035488.7023360729, -0.1741,  0.2130,  0.1205,  0.1052,  0.1714,  0.1614
1492035488.7027130127,1492035488.7051389217, -0.1741,  0.2130,  0.1205,  0.1052,  0.1714,  0.1614
1492035488.7055160999,1492035488.7079479694, -0.1741, -0.1489,  0.0987,  0.1052,  0.1714,  0.1614
1492035488.7083239555,1492035488.7107141018, -0.2536, -0.1489,  0.0987,  0.1052,  0.1312,  0.1966
1492035488.7110819817,1492035488.7133820057, -0.2536, -0.1489,  0.0987,  0.1935,  0.1312,  0.1966
1492035488.7137510777,1492035488.7160489559, -0.2536, -0.1489,  0.0987,  0.1935,  0.1312,  0.1966
1492035488.7164170742,1492035488.7187159061, -0.2536, -0.1489,  0.0987,  0.1935,  0.1312,  0.1966
1492035488.7190859318,1492035488.7214810848, -0.2536, -0.1489,  0.0987,  0.0151,  0.2185,  0.4046
1492035488.7218570709,1492035488.7242848873, -0.2536, -0.1489,  0.0987,  0.0151,  0.2185,  0.4046
1492035488.7246620655,1492035488.7270851135, -0.2536, -0.1489,  0.0987,  0.0151,  0.2185,  0.4046
1492035488.7274610996,1492035488.7298870087, -0.2113, -0.0562,  0.0978,  0.0151,  0.2185,  0.4046
1492035488.7302639484,1492035488.7326900959, -0.2113, -0.0562,  0.0978, -0.2066,  0.2265,  0.4596
1492035488.7330660820,1492035488.7354989052, -0.2113, -0.0562,  0.0978, -0.2066,  0.2265,  0.4596
1492035488.7358760834,1492035488.7383050919, -0.2113, -0.0562,  0.0978, -0.2066,  0.2265,  0.4596
1492035488.7386820316,1492035488.7411201000, -0.2113, -0.0562,  0.0978, -0.2066,  0.2265,  0.4868
1492035488.7414979935,1492035488.7439260483, -0.2113, -0.0562,  0.0978, -0.1785,  0.1809,  0.4868
1492035488.7443029881,1492035488.7467300892, -0.2113, -0.0562,  0.0978, -0.1785,  0.1809,  0.4868
1492035488.7471060753,1492035488.7495329380, -0.3547, -0.0948,  0.1183, -0.1785,  0.1809,  0.4868
1492035488.7499120235,1492035488.7523829937, -0.3547, -0.0948,  0.1183, -0.0938,  0.1581,  0.5096
1492035488.7527599335,1492035488.7551870346, -0.3547, -0.0948,  0.1183, -0.0938,  0.1581,  0.5096
1492035488.7555658817,1492035488.7579948902, -0.3547, -0.0948,  0.1183, -0.0938,  0.1581,  0.5096
1492035488.7583711147,1492035488.7608120441, -0.3547, -0.0948,  0.1183, -0.0938,  0.1581,  0.5096
1492035488.7611811161,1492035488.7634830475, -0.3547, -0.0948,  0.1183, -0.0603,  0.2003,  0.5356
1492035488.7638540268,1492035488.7661609650, -0.3547, -0.0948,  0.1183, -0.0603,  0.2003,  0.5356
1492035488.7665300369,1492035488.7688279152, -0.4364, -0.1222,  0.1439, -0.0603,  0.2003,  0.5356
1492035488.7691969872,1492035488.7715389729, -0.4364, -0.1222,  0.1439, -0.0603,  0.2003,  0.5356
1492035488.7719089985,1492035488.7742059231, -0.4364, -0.1222,  0.1439, -0.0025,  0.2198,  0.5493
1492035488.7745769024,1492035488.7768769264, -0.4364, -0.1222,  0.1439, -0.0025,  0.2198,  0.5493
1492035488.7772469521,1492035488.7795441151, -0.4364, -0.1222,  0.1439, -0.0025,  0.2198,  0.5493
1492035488.7799119949,1492035488.7823410034, -0.4364, -0.1222,  0.1439, -0.0025,  0.2198,  0.5243
1492035488.7827179432,1492035488.7851328850, -0.4364, -0.1222,  0.1439,  0.1065,  0.2353,  0.5243
1492035488.7855100632,1492035488.7879199982, -0.3977, -0.1000,  0.1162,  0.1065,  0.2353,  0.5243
1492035488.7882978916,1492035488.7907149792, -0.3977, -0.1000,  0.1162,  0.1065,  0.2353,  0.5243
1492035488.7911119461,1492035488.7954869270, -0.3977, -0.1000,  0.1162,  0.1807,  0.2649,  0.4890
1492035488.7958719730,1492035488.7981700897, -0.3977, -0.1000,  0.1162,  0.1807,  0.2649,  0.4890
1492035488.7985389233,1492035488.8009719849, -0.3977, -0.1000,  0.1162,  0.1807,  0.2649,  0.4890
1492035488.8014791012,1492035488.8037741184, -0.3977, -0.1000,  0.1162,  0.2163,  0.2881,  0.4601
1492035488.8041429520,1492035488.8064379692, -0.3977, -0.1000,  0.0524,  0.2163,  0.2881,  0.4601
1492035488.8068070412,1492035488.8091030121, -0.3673, -0.1345,  0.0524,  0.2163,  0.2881,  0.4601
1492035488.8094708920,1492035488.8117899895, -0.3673, -0.1345,  0.0524,  0.2163,  0.2881,  0.4601
1492035488.8121590614,1492035488.8144559860, -0.3673, -0.1345,  0.0524,  0.2500,  0.3078,  0.4352
1492035488.8148279190,1492035488.8171219826, -0.3673, -0.1345,  0.0524,  0.2500,  0.3078,  0.4352
1492035488.8174910545,1492035488.8197898865, -0.3673, -0.1345,  0.0524,  0.2500,  0.3078,  0.4352
1492035488.8201580048,1492035488.8224608898, -0.3673, -0.1345,  0.0524,  0.2500,  0.3078,  0.4352
1492035488.8228290081,1492035488.8251409531, -0.3673, -0.1345,  0.0524,  0.2640,  0.3284,  0.3849
1492035488.8255109787,1492035488.8278141022, -0.3775, -0.1612, -0.0115,  0.2640,  0.3284,  0.3849
1492035488.8281819820,1492035488.8307089806, -0.3775, -0.1612, -0.0115,  0.2640,  0.3284,  0.3849
1492035488.8310871124,1492035488.8335061073, -0.3775, -0.1612, -0.0115,  0.2640,  0.3284,  0.2989
1492035488.8338799477,1492035488.8362929821, -0.3775, -0.1612, -0.0115,  0.1939,  0.3253,  0.2987
1492035488.8366661072,1492035488.8390810490, -0.3775, -0.1612, -0.0115,  0.1939,  0.3253,  0.2987
1492035488.8394560814,1492035488.8418838978, -0.3775, -0.1612, -0.0115,  0.1939,  0.3253,  0.2987
1492035488.8422579765,1492035488.8446660042, -0.3775, -0.1612, -0.0115,  0.0611,  0.2676,  0.2077
1492035488.8450400829,1492035488.8474550247, -0.2345, -0.1928,  0.0450,  0.0550,  0.2676,  0.2077
1492035488.8478300571,1492035488.8502531052, -0.2345, -0.1928,  0.0450,  0.0550,  0.2676,  0.2077
1492035488.8506278992,1492035488.8530399799, -0.2345, -0.1928,  0.0450,  0.0550,  0.2676,  0.2077
1492035488.8534140587,1492035488.8558280468, -0.2345, -0.1928,  0.0450, -0.0844,  0.2074,  0.1331
1492035488.8562030792,1492035488.8586170673, -0.2345, -0.1928,  0.0450, -0.0844,  0.2074,  0.1331
1492035488.8589920998,1492035488.8614470959, -0.2345, -0.1928,  0.0450, -0.0844,  0.2074,  0.1331
1492035488.8618240356,1492035488.8642349243, -0.2345, -0.1928,  0.0450, -0.0844,  0.2074,  0.1331
1492035488.8646090031,1492035488.8670198917, -0.0814, -0.0898,  0.0178, -0.1810,  0.1530,  0.0628
1492035488.8673970699,1492035488.8698120117, -0.0814, -0.0898,  0.0178, -0.1810,  0.1530,  0.0628
1492035488.8701910973,1492035488.8726029396, -0.0814, -0.0898,  0.0178, -0.1810,  0.1530,  0.0628
1492035488.8729801178,1492035488.8753890991, -0.0814, -0.0898,  0.0178, -0.1810,  0.1137, -0.0292
1492035488.8757660389,1492035488.8781750202, -0.0814, -0.0898,  0.0178, -0.2249,  0.1137, -0.0292
1492035488.8785490990,1492035488.8810119629, -0.0814, -0.0898,  0.0178, -0.2249,  0.1137, -0.0292
1492035488.8813889027,1492035488.8837959766, -0.0814, -0.0898,  0.0178, -0.2249,  0.1137, -0.0292
1492035488.8841710091,1492035488.8865840435,  0.0280, -0.0106,  0.0164, -0.2425,  0.0781, -0.1377
1492035488.8869590759,1492035488.8893671036,  0.0299, -0.0106,  0.0164, -0.2425,  0.0781, -0.1377
1492035488.8897409439,1492035488.8921680450,  0.0299, -0.0106,  0.0164, -0.2425,  0.0781, -0.1377
1492035488.8925440311,1492035488.8949561119,  0.0299, -0.0106,  0.0164, -0.2425,  0.0781, -0.1377
1492035488.8953309059,1492035488.8977439404,  0.0299, -0.0106,  0.0164, -0.2580,  0.0350, -0.2719
1492035488.8981189728,1492035488.9005429745,  0.0299, -0.0106,  0.0164, -0.2580,  0.0350, -0.2719
1492035488.9009160995,1492035488.9033029079,  0.0299, -0.0106,  0.0164, -0.2580,  0.0350, -0.2719
1492035488.9036769867,1492035488.9060668945,  0.0299, -0.0039,  0.0175, -0.2580, -0.0197, -0.4083
1492035488.9064400196,1492035488.9088308811,  0.1111, -0.0039,  0.0175, -0.2498, -0.0181, -0.4083
1492035488.9092569351,1492035488.9152710438,  0.1111, -0.0039,  0.0175, -0.2498, -0.0181, -0.4083
1492035488.9156639576,1492035488.9191598892,  0.1111, -0.0039,  0.0175, -0.2534, -0.0515, -0.5168
1492035488.9195480347,1492035488.9228999615,  0.1111, -0.0039,  0.0175, -0.2534, -0.0515, -0.5168
1492035488.9234189987,1492035488.9267320633,  0.1111,  0.0505,  0.0560, -0.2534, -0.0515, -0.6183
1492035488.9271080494,1492035488.9304220676,  0.0066,  0.0505,  0.0560, -0.2529, -0.0776, -0.6239
1492035488.9308021069,1492035488.9330999851,  0.0066,  0.0505,  0.0560, -0.2529, -0.0776, -0.6239
1492035488.9334700108,1492035488.9357700348,  0.0066,  0.0505,  0.0560, -0.2529, -0.0776, -0.6239
1492035488.9361391068,1492035488.9384670258,  0.0066,  0.0505,  0.0560, -0.2080, -0.1130, -0.7199
1492035488.9388380051,1492035488.9411959648,  0.0066,  0.0505,  0.0560, -0.2080, -0.1130, -0.7199
1492035488.9415690899,1492035488.9438710213,  0.0066,  0.0505,  0.0560, -0.2080, -0.1130, -0.7199
1492035488.9442400932,1492035488.9465320110, -0.0750,  0.0718,  0.0555, -0.2080, -0.1130, -0.7199
1492035488.9469020367,1492035488.9491989613, -0.0750,  0.0718,  0.0555, -0.1603, -0.1388, -0.7837
1492035488.9495658875,1492035488.9518709183, -0.0750,  0.0718,  0.0555, -0.1603, -0.1388, -0.7837
1492035488.9522399902,1492035488.9545359612, -0.0750,  0.0718,  0.0555, -0.1603, -0.1388, -0.7837
1492035488.9549059868,1492035488.9572069645, -0.0750,  0.0718,  0.0555, -0.1603, -0.1388, -0.8149
1492035488.9575788975,1492035488.9598770142, -0.0750,  0.0718,  0.0555, -0.1075, -0.1530, -0.8149
1492035488.9602448940,1492035488.9625439644, -0.0750,  0.0718,  0.0555, -0.1075, -0.1530, -0.8149
1492035488.9629130363,1492035488.9652171135, -0.0750,  0.0327,  0.0517, -0.1075, -0.1530, -0.8149
1492035488.9655859470,1492035488.9678831100, -0.1357,  0.0326,  0.0517, -0.1075, -0.1686, -0.8315
1492035488.9682519436,1492035488.9708020687, -0.1357,  0.0326,  0.0517, -0.0589, -0.1681, -0.8315
1492035488.9711809158,1492035488.9736061096, -0.1357,  0.0326,  0.0517, -0.0589, -0.1681, -0.8315
1492035488.9739820957,1492035488.9764049053, -0.1357,  0.0326,  0.0517, -0.0589, -0.1681, -0.8315
1492035488.9767789841,1492035488.9792098999, -0.1357,  0.0326,  0.0517, -0.0445, -0.1910, -0.8512
1492035488.9795880318,1492035488.9820590019, -0.1357,  0.0326,  0.0517, -0.0445, -0.1910, -0.8512
1492035488.9824359417,1492035488.9848580360, -0.1357,  0.0326,  0.0715, -0.0445, -0.1910, -0.8512
1492035488.9852340221,1492035488.9876620770, -0.1316,  0.0205,  0.0715, -0.0445, -0.1910, -0.8512
1492035488.9880399704,1492035488.9904780388, -0.1316,  0.0205,  0.0715, -0.0403, -0.2204, -0.8802
1492035488.9908559322,1492035488.9932780266, -0.1316,  0.0205,  0.0715, -0.0403, -0.2204, -0.8802
1492035488.9936540127,1492035488.9960839748, -0.1316,  0.0205,  0.0715, -0.0403, -0.2204, -0.8802
1492035488.9964599609,1492035488.9988861084, -0.1316,  0.0205,  0.0715, -0.0403, -0.2572, -0.8993
1492035488.9992630482,1492035489.0016529560, -0.1316,  0.0205,  0.0715, -0.0162, -0.2572, -0.8993
1492035489.0020239353,1492035489.0043249130, -0.1316,  0.0205,  0.0715, -0.0162, -0.2572, -0.8993
1492035489.0046920776,1492035489.0069940090, -0.1754,  0.0986,  0.0794, -0.0162, -0.2572, -0.8993
1492035489.0073609352,1492035489.0096640587, -0.1754,  0.0986,  0.0794,  0.0217, -0.2964, -0.8903
1492035489.0100920200,1492035489.0125169754, -0.1754,  0.0986,  0.0794,  0.0217, -0.2964, -0.8903
1492035489.0128939152,1492035489.0153179169, -0.1754,  0.0986,  0.0794,  0.0217, -0.2964, -0.8903
1492035489.0156950951,1492035489.0181241035, -0.1754,  0.0986,  0.0794,  0.0217, -0.2964, -0.8903
1492035489.0185000896,1492035489.0209629536, -0.1754,  0.0986,  0.0794,  0.0314, -0.3380, -0.8732
1492035489.0213389397,1492035489.0237679482, -0.1754,  0.0986,  0.0794,  0.0314, -0.3380, -0.8732
1492035489.0241448879,1492035489.0265700817, -0.2464,  0.0570,  0.0609,  0.0314, -0.3380, -0.8732
1492035489.0269451141,1492035489.0293679237, -0.2464,  0.0570,  0.0609,  0.0314, -0.3380, -0.8579
1492035489.0297451019,1492035489.0321829319, -0.2464,  0.0570,  0.0609,  0.0205, -0.3728, -0.8579
1492035489.0325579643,1492035489.0349860191, -0.2464,  0.0570,  0.0609,  0.0205, -0.3728, -0.8579
1492035489.0353620052,1492035489.0377860069, -0.2464,  0.0570,  0.0609,  0.0205, -0.3728, -0.8579
1492035489.0381629467,1492035489.0405979156, -0.2464,  0.0570,  0.0609,  0.0215, -0.4004, -0.8463
1492035489.0410990715,1492035489.0434010029, -0.2464,  0.0570,  0.0609,  0.0215, -0.4004, -0.8463
1492035489.0437700748,1492035489.0460739136, -0.3389,  0.1038,  0.0328,  0.0215, -0.4004, -0.8463
1492035489.0464439392,1492035489.0487389565, -0.3389,  0.1038,  0.0328,  0.0215, -0.4004, -0.8463
1492035489.0491099358,1492035489.0515029430, -0.3389,  0.1038,  0.0328,  0.0088, -0.4170, -0.8130
1492035489.0518798828,1492035489.0543110371, -0.3389,  0.1038,  0.0328,  0.0088, -0.4170, -0.8130
1492035489.0546879768,1492035489.0571091175, -0.3389,  0.1038,  0.0328,  0.0088, -0.4170, -0.8130
1492035489.0574870110,1492035489.0599141121, -0.3389,  0.1038,  0.0328,  0.0088, -0.4170, -0.7505
1492035489.0603430271,1492035489.0627739429, -0.3389,  0.1038,  0.0328, -0.0369, -0.4296, -0.7564
1492035489.0631489754,1492035489.0655798912, -0.3797,  0.2165, -0.0068, -0.0369, -0.4296, -0.7564
1492035489.0659561157,1492035489.0683870316, -0.3797,  0.2165, -0.0068, -0.0369, -0.4296, -0.7564
1492035489.0687649250,1492035489.0712521076, -0.3797,  0.2165, -0.0068, -0.0573, -0.4235, -0.7054
1492035489.0716300011,1492035489.0740571022, -0.3797,  0.2165, -0.0068, -0.0573, -0.4235, -0.7054
1492035489.0744330883,1492035489.0768620968, -0.3797,  0.2165, -0.0068, -0.0573, -0.4235, -0.7054
1492035489.0772409439,1492035489.0796670914, -0.3797,  0.2165, -0.0068, -0.0573, -0.4235, -0.7054
1492035489.0800540447,1492035489.0824720860, -0.3797,  0.2165, -0.0068, -0.0391, -0.3867, -0.6449
1492035489.0828480721,1492035489.0852758884, -0.5131,  0.3936, -0.1307, -0.0391, -0.3867, -0.6449
1492035489.0856521130,1492035489.0880711079, -0.5131,  0.3936, -0.1307, -0.0391, -0.3867, -0.6449
1492035489.0884459019,1492035489.0908489227, -0.5131,  0.3936, -0.1307, -0.0391, -0.3867, -0.5512
1492035489.0912160873,1492035489.0935199261, -0.5131,  0.3936, -0.1307, -0.0536, -0.3117, -0.5539
1492035489.0938880444,1492035489.0961871147, -0.5131,  0.3936, -0.1307, -0.0536, -0.3117, -0.5539
1492035489.0965549946,1492035489.0988619328, -0.5131,  0.3936, -0.1307, -0.0536, -0.3117, -0.5539
1492035489.0992329121,1492035489.1016619205, -0.5131,  0.3936, -0.1307, -0.0536, -0.2336, -0.4749
1492035489.1020369530,1492035489.1044590473, -0.5366,  0.6064, -0.0925, -0.0568, -0.2320, -0.4749
1492035489.1048350334,1492035489.1072599888, -0.5341,  0.6064, -0.0925, -0.0568, -0.2320, -0.4749
1492035489.1076359749,1492035489.1100668907, -0.5341,  0.6064, -0.0925, -0.0568, -0.2320, -0.4749
1492035489.1104440689,1492035489.1128768921, -0.5341,  0.6064, -0.0925, -0.0217, -0.1644, -0.4008
1492035489.1132550240,1492035489.1156780720, -0.5341,  0.6064, -0.0925, -0.0217, -0.1644, -0.4008
1492035489.1160540581,1492035489.1184780598, -0.5341,  0.6064, -0.0925, -0.0217, -0.1644, -0.4008
1492035489.1188569069,1492035489.1212980747, -0.5341,  0.6064, -0.0925, -0.0217, -0.1644, -0.4008
1492035489.1216740608,1492035489.1240949631, -0.5341,  0.6279, -0.0685,  0.0167, -0.0970, -0.2833
1492035489.1244709492,1492035489.1268949509, -0.2668,  0.6279, -0.0685,  0.0167, -0.0970, -0.2833
1492035489.1272709370,1492035489.1297008991, -0.2668,  0.6279, -0.0685,  0.0167, -0.0970, -0.2833
1492035489.1300880909,1492035489.1325299740, -0.2668,  0.6279, -0.0685,  0.0167, -0.0189, -0.1404
1492035489.1329059601,1492035489.1353390217, -0.2668,  0.6279, -0.0685,  0.0560, -0.0169, -0.1404
1492035489.1357159615,1492035489.1381390095, -0.2668,  0.6279, -0.0685,  0.0560, -0.0169, -0.1404
1492035489.1385159492,1492035489.1409049034, -0.2668,  0.6279, -0.0685,  0.0560, -0.0169, -0.1404
1492035489.1412739754,1492035489.1435780525, -0.2668,  0.5888, -0.2092,  0.1700,  0.0338, -0.0261
1492035489.1439480782,1492035489.1462481022, -0.0975,  0.5920, -0.2092,  0.1700,  0.0338, -0.0261
1492035489.1466159821,1492035489.1489100456, -0.0975,  0.5920, -0.2092,  0.1700,  0.0338, -0.0261
1492035489.1492800713,1492035489.1515939236, -0.0975,  0.5920, -0.2092,  0.1700,  0.0338, -0.0261
1492035489.1519629955,1492035489.1542611122, -0.0975,  0.5920, -0.2092,  0.2927,  0.0069,  0.0457
1492035489.1546308994,1492035489.1569368839, -0.0975,  0.5920, -0.2092,  0.2927,  0.0069,  0.0457
1492035489.1574130058,1492035489.1597149372, -0.0975,  0.5920, -0.2092,  0.2927,  0.0069,  0.0457
1492035489.1601009369,1492035489.1625239849, -0.0975,  0.5920, -0.2092,  0.2927,  0.0069,  0.0457
1492035489.1629021168,1492035489.1653339863, -0.1961,  0.2871, -0.2212,  0.3078,  0.0347,  0.1100
1492035489.1657121181,1492035489.1681408882, -0.1961,  0.2871, -0.2212,  0.3078,  0.0347,  0.1100
1492035489.1685171127,1492035489.1709470749, -0.1961,  0.2871, -0.2212,  0.3078,  0.0347,  0.1100
1492035489.1713249683,1492035489.1737489700, -0.1961,  0.2871, -0.2212,  0.3078,  0.0815,  0.1456
1492035489.1741249561,1492035489.1765499115, -0.1961,  0.2871, -0.2212,  0.2803,  0.0804,  0.1456
1492035489.1769249439,1492035489.1793539524, -0.1961,  0.2871, -0.2212,  0.2803,  0.0804,  0.1456
1492035489.1797299385,1492035489.1821620464, -0.1961,  0.2871, -0.2212,  0.2803,  0.0804,  0.1456
1492035489.1825380325,1492035489.1849620342, -0.2034,  0.0674, -0.3418,  0.1671,  0.1113,  0.1044
1492035489.1853399277,1492035489.1877660751, -0.2034,  0.0674, -0.3418,  0.1671,  0.1113,  0.1044
