Accel X
P_i,P_t,P_x,T_i,T_t,T_p
487,1492035350.9398589134,-0.030000,480,1492035350.9207160473,-0.859900
780,1492035351.7528030872,0.075200,765,1492035351.7111849785,-0.812800
1058,1492035352.5242109299,0.230800,1044,1492035352.4852399826,-0.770100
1337,1492035353.2990200520,0.033200,1322,1492035353.2572700977,-0.861500
1615,1492035354.0713260174,0.025000,1600,1492035354.0298209190,-0.685700
1893,1492035354.8428540230,0.061400,1879,1492035354.8044490814,-0.812200
2173,1492035355.6175971031,0.008100,2166,1492035355.5981550217,-0.530800
2451,1492035356.3885300159,0.073200,2444,1492035356.3689661026,-0.656100
2730,1492035357.1616299152,0.220800,2716,1492035357.1228051186,-0.959300
3023,1492035357.9745199680,-0.074800,2995,1492035357.8965270519,-0.608000
3281,1492035358.6898820400,0.139000,3266,1492035358.6483340263,-0.990900
3559,1492035359.4612739086,0.024600,3545,1492035359.4218831062,-0.973800
3831,1492035360.2140669823,-0.053900,3824,1492035360.1946380138,-0.743000
4110,1492035360.9873209000,0.146500,4096,1492035360.9485759735,-0.952200
4389,1492035361.7616569996,0.046200,4374,1492035361.7204360962,-0.871600
4810,1492035362.9290161133,-0.064700,4646,1492035362.4737100601,-0.634000
5210,1492035364.0393459797,0.022400,4924,1492035363.2456200123,-0.590100
5487,1492035364.8116168976,0.084000,5196,1492035364.0005419254,-0.795100
5931,1492035366.0412409306,-0.019300,5473,1492035364.7726829052,-0.834500
6324,1492035367.1309928894,0.051600,5752,1492035365.5456779003,-0.516600
6603,1492035367.9037621021,0.063500,6031,1492035366.3189229965,-0.681200
6879,1492035368.6780660152,0.079700,6310,1492035367.0920600891,-0.923500
7436,1492035370.2238650322,0.033600,6589,1492035367.8647940159,-0.520300
7707,1492035370.9754660130,0.092500,6864,1492035368.6369199753,-0.885200
7979,1492035371.7304079533,0.096300,7421,1492035370.1822340488,-0.685200
,,,7693,1492035370.9367549419,-0.973800
,,,7971,1492035371.7079460621,-0.539000
,,,8535,1492035373.2733058929,-0.556500



Accel Y
P_i,P_t,P_x,T_i,T_t,T_p
772,1492035351.7303900719,0.457700,873,1492035352.0101139545,-0.147900
1058,1492035352.5242109299,0.520500,1180,1492035352.8624670506,-0.163600
1280,1492035353.1402509212,0.514000,1465,1492035353.6548390388,-0.165600
1565,1492035353.9323430061,0.467400,1708,1492035354.3292078972,-0.190100
1836,1492035354.6849761009,0.501100,2022,1492035355.2005779743,-0.183500
2129,1492035355.4973568916,0.510300,2301,1492035355.9724760056,-0.125400
2409,1492035356.2716240883,0.591900,2558,1492035356.6854579449,-0.153900
2680,1492035357.0230059624,0.599200,2823,1492035357.4198739529,-0.143400
2959,1492035357.7966470718,0.599500,3116,1492035358.2330191135,-0.166000
3230,1492035358.5487709045,0.551400,3388,1492035358.9862899780,-0.128600
3509,1492035359.3216710091,0.492300,3688,1492035359.8182249069,-0.173400
3788,1492035360.0944309235,0.476700,3946,1492035360.5319430828,-0.190600
4067,1492035360.8676450253,0.533700,4239,1492035361.3451659679,-0.173600
4338,1492035361.6204090118,0.509900,4474,1492035361.9978320599,-0.183100
4610,1492035362.3739459515,0.547600,4767,1492035362.8096508980,-0.152800
4882,1492035363.1285429001,0.467900,4996,1492035363.4451100826,-0.165700
5167,1492035363.9200580120,0.582300,5203,1492035364.0202209949,-0.249100
5438,1492035364.6744139194,0.466500,5473,1492035364.7726829052,-0.208100
5716,1492035365.4459240437,0.594000,5752,1492035365.5456779003,-0.361000
6002,1492035366.2382900715,0.540100,6038,1492035366.3385291100,-0.298100
6274,1492035366.9928619862,0.595100,6310,1492035367.0920600891,-0.061000
6560,1492035367.7846300602,0.573200,6596,1492035367.8842980862,-0.396600
6835,1492035368.5564239025,0.636400,6871,1492035368.6563279629,-0.163100
7107,1492035369.3110420704,0.690300,7142,1492035369.4083058834,-0.446300
7385,1492035370.0825281143,0.562700,7421,1492035370.1822340488,-0.192400
7664,1492035370.8563079834,0.599100,7800,1492035371.2336099148,-0.144400
7943,1492035371.6303949356,0.510000,8121,1492035372.1244070530,-0.139100
8221,1492035372.4016940594,0.573800,8393,1492035372.8792569637,-0.152400
8507,1492035373.1952230930,0.467800,,,



Accel Z
P_i,P_t,P_x,T_i,T_t,T_p
472,1492035350.8982629776,0.594000,486,1492035350.9371919632,-0.340400
758,1492035351.6916100979,0.271100,1308,1492035353.2184379101,-0.314400
1044,1492035352.4852399826,0.703400,1329,1492035353.2766010761,-0.393300
1315,1492035353.2376430035,0.236400,1864,1492035354.7628350258,-0.209200
1593,1492035354.0106210709,0.360000,2144,1492035355.5381948948,-0.356000
1872,1492035354.7848229408,0.359700,3002,1492035357.9160170555,-0.363200
2158,1492035355.5766429901,0.931300,3559,1492035359.4612739086,-0.384600
2437,1492035356.3497478962,0.567700,4067,1492035360.8676450253,-0.229700
2987,1492035357.8743839264,0.550000,4359,1492035361.6788671017,-0.273800
3266,1492035358.6483340263,0.414900,4632,1492035362.4344830513,-0.420300
3817,1492035360.1750218868,0.342000,4938,1492035363.2840700150,-0.207000
4095,1492035360.9456629753,0.354600,5459,1492035364.7328128815,-0.443100
4360,1492035361.6816790104,0.351200,5737,1492035365.5042419434,-0.225300
4639,1492035362.4542210102,0.585600,6023,1492035366.2966918945,-0.357000
4917,1492035363.2264370918,0.671800,6295,1492035367.0508320332,-0.383100
5195,1492035363.9977269173,0.725500,6581,1492035367.8428449631,-0.377300
5466,1492035364.7525770664,0.429000,6857,1492035368.6173040867,-0.278600
5745,1492035365.5259530544,0.391000,7407,1492035370.1433899403,-0.322400
6030,1492035366.3161280155,0.653200,7707,1492035370.9754660130,-0.366600
6309,1492035367.0893599987,0.253100,8242,1492035372.4597649574,-0.228700
6588,1492035367.8620080948,0.742000,8521,1492035373.2340281010,-0.245800
6864,1492035368.6369199753,0.860200,,,
7135,1492035369.3890891075,0.617400,,,
7414,1492035370.1630508900,0.649000,,,
7692,1492035370.9340860844,0.505700,,,
7971,1492035371.7079460621,0.863700,,,
8243,1492035372.4626009464,0.536900,,,
8535,1492035373.2733058929,0.510400,,,



Gyro X
P_i,P_t,P_x,T_i,T_t,T_p
615,1492035351.2974929810,0.374500,474,1492035350.9062979221,-0.290500
904,1492035352.0987150669,0.242400,759,1492035351.6968300343,-0.239100
1126,1492035352.7150530815,0.246900,945,1492035352.2124629021,-0.259600
1400,1492035353.4762089252,0.297400,1197,1492035352.9121379852,-0.280300
1619,1492035354.0848829746,0.307200,1474,1492035353.6820380688,-0.261800
1893,1492035354.8452730179,0.231900,1704,1492035354.3204209805,-0.077100
2142,1492035355.5351579189,0.309100,2031,1492035355.2277679443,-0.321400
2424,1492035356.3159019947,0.229700,2399,1492035356.2464680672,-0.214700
2688,1492035357.0473608971,0.193700,2591,1492035356.7789950371,-0.190200
2970,1492035357.8300380707,0.252700,2873,1492035357.5606930256,-0.239500
3282,1492035358.6951150894,0.290200,3263,1492035358.6423580647,-0.236700
3586,1492035359.5381059647,0.256700,3545,1492035359.4243099689,-0.242100
3798,1492035360.1244750023,0.101100,3831,1492035360.2163701057,-0.259700
4128,1492035361.0394170284,0.288500,4106,1492035360.9785449505,-0.257500
4354,1492035361.6672840118,0.208900,4380,1492035361.7396569252,-0.250900
4618,1492035362.3980588913,0.256700,4648,1492035362.4815020561,-0.270400
4944,1492035363.3033339977,0.263200,5074,1492035363.6638989449,-0.315600
5178,1492035363.9529130459,0.252400,5355,1492035364.4452788830,-0.379900
5451,1492035364.7133150101,0.204200,5626,1492035365.1981248856,-0.367100
5726,1492035365.4760088921,0.210900,6030,1492035366.3185451031,-0.283000
6056,1492035366.3908801079,0.324700,6464,1492035367.5208370686,-0.277600
6327,1492035367.1412971020,0.400600,6706,1492035368.2000739574,-0.126600
6569,1492035367.8116478920,0.249600,6981,1492035368.9636850357,-0.098200
6888,1492035368.7054760456,0.342700,7303,1492035369.8570671082,-0.317100
7166,1492035369.4777269363,0.275400,7570,1492035370.5989561081,-0.237500
7437,1492035370.2290849686,0.293500,7860,1492035371.4026060104,-0.194500
7674,1492035370.8869440556,0.209400,8130,1492035372.1515460014,-0.303300
7956,1492035371.6687738895,0.214300,8416,1492035372.9453709126,-0.451400
8234,1492035372.4406850338,0.185200,,,



Gyro Y
P_i,P_t,P_x,T_i,T_t,T_p
477,1492035350.9147229195,0.344800,473,1492035350.9035019875,-0.330100
774,1492035351.7384159565,0.378500,700,1492035351.5329270363,-0.391600
1056,1492035352.5210220814,0.401300,989,1492035352.3351368904,-0.479700
1459,1492035353.6403410435,0.308100,1260,1492035353.0871090889,-0.385000
1889,1492035354.8343439102,0.415600,1541,1492035353.8682479858,-0.417400
2149,1492035355.5540649891,0.238700,1811,1492035354.6176049709,-0.373400
2428,1492035356.3269460201,0.221000,2097,1492035355.4112510681,-0.404800
2725,1492035357.1499528885,0.405200,2376,1492035356.1828711033,-0.467500
3000,1492035357.9128420353,0.471600,2654,1492035356.9532830715,-0.427400
3274,1492035358.6726839542,0.452400,2929,1492035357.7160520554,-0.453000
3556,1492035359.4553439617,0.474100,3196,1492035358.4572219849,-0.428800
3835,1492035360.2274749279,0.270700,3475,1492035359.2296719551,-0.392900
4109,1492035360.9869461060,0.570800,3761,1492035360.0219879150,-0.392600
4384,1492035361.7503960133,0.486300,4035,1492035360.7815260887,-0.438300
4644,1492035362.4706680775,0.420000,4310,1492035361.5449988842,-0.418300
4933,1492035363.2727749348,0.445400,4581,1492035362.2955529690,-0.442100
5207,1492035364.0333681107,0.499500,4855,1492035363.0558640957,-0.431200
5458,1492035364.7324440479,0.237900,5140,1492035363.8470280170,-0.466200
5762,1492035365.5757091045,0.323900,5414,1492035364.6101140976,-0.455600
6022,1492035366.2963221073,0.214300,5685,1492035365.3622820377,-0.430100
6319,1492035367.1194400787,0.603900,5971,1492035366.1541550159,-0.439100
6579,1492035367.8396570683,0.254000,6252,1492035366.9339179993,-0.490500
6854,1492035368.6113250256,0.247300,6531,1492035367.7066259384,-0.440300
7147,1492035369.4248940945,0.402600,6806,1492035368.4776740074,-0.462800
7426,1492035370.1982719898,0.708300,7081,1492035369.2413070202,-0.472900
7681,1492035370.9061069489,0.222000,7355,1492035370.0012989044,-0.517700
7985,1492035371.7493050098,0.425000,7633,1492035370.7739090919,-0.464900
8264,1492035372.5235130787,0.420700,7911,1492035371.5441060066,-0.445300
,,,8193,1492035372.3265519142,-0.466500
,,,8482,1492035373.1284360886,-0.402800



Gyro Z
P_i,P_t,P_x,T_i,T_t,T_p
481,1492035350.9259529114,0.425800,685,1492035351.4913189411,-0.650000
770,1492035351.7271749973,0.802000,967,1492035352.2738449574,-0.722400
1052,1492035352.5097570419,0.917800,1245,1492035353.0456850529,-0.659800
1330,1492035353.2816669941,0.870400,1530,1492035353.8373548985,-0.717700
1607,1492035354.0517930984,0.876700,1808,1492035354.6091940403,-0.693500
1885,1492035354.8236711025,0.804600,2082,1492035355.3697369099,-0.673800
2168,1492035355.6060180664,0.937400,2372,1492035356.1716520786,-0.744900
2446,1492035356.3769390583,0.907300,2640,1492035356.9145541191,-0.757300
2725,1492035357.1499528885,0.904900,2918,1492035357.6853339672,-0.710300
2999,1492035357.9100430012,0.884300,3199,1492035358.4656291008,-0.711000
3274,1492035358.6726839542,0.916700,3467,1492035359.2080860138,-0.743100
3552,1492035359.4441339970,0.720900,3749,1492035359.9883100986,-0.760900
3831,1492035360.2163701057,0.756200,4028,1492035360.7618999481,-0.710200
4106,1492035360.9785449505,0.949300,4298,1492035361.5114879608,-0.732400
4380,1492035361.7396569252,0.905300,4577,1492035362.2842969894,-0.707000
4651,1492035362.4899079800,0.928600,4847,1492035363.0337150097,-0.698500
4929,1492035363.2619850636,0.815600,5126,1492035363.8081779480,-0.798000
5207,1492035364.0333681107,0.864800,5395,1492035364.5568430424,-0.786700
5480,1492035364.7946240902,0.896100,5677,1492035365.3397779465,-0.711900
5759,1492035365.5672879219,0.850500,5963,1492035366.1325609684,-0.766400
6041,1492035366.3489079475,0.835800,6241,1492035366.9034590721,-0.795400
6316,1492035367.1110410690,0.834700,6523,1492035367.6845600605,-0.730400
6601,1492035367.9006259441,0.856400,6802,1492035368.4665760994,-0.795400
6873,1492035368.6639649868,0.879800,7073,1492035369.2193479538,-0.745500
7147,1492035369.4248940945,0.939200,7344,1492035369.9709379673,-0.784400
7429,1492035370.2066659927,0.745000,7625,1492035370.7511548996,-0.778400
7700,1492035370.9582700729,0.844100,7900,1492035371.5134339333,-0.724600
7981,1492035371.7384309769,0.947000,8182,1492035372.2961819172,-0.794900
8263,1492035372.5207099915,0.874800,8471,1492035373.0979650021,-0.640900



