Accel X
S_i,S_t,S_x



Accel Y
S_i,S_t,S_x
751,1492035351.6718320847,0.089000
877,1492035352.0214281082,0.002000
1051,1492035352.5045320988,0.067900
1188,1492035352.8844540119,-0.051100
1258,1492035353.0794010162,0.095900
1469,1492035353.6657838821,-0.097000
1536,1492035353.8518049717,0.099300
1712,1492035354.3404300213,0.011600
1800,1492035354.5846300125,0.097900
2026,1492035355.2113220692,-0.075400
2093,1492035355.3980441093,0.058100
2305,1492035355.9836039543,-0.085400
2380,1492035356.1916608810,0.057900
2567,1492035356.7105090618,-0.049700
2659,1492035356.9648749828,0.095600
2827,1492035357.4310719967,-0.003500
2930,1492035357.7164289951,0.077400
3120,1492035358.2442309856,-0.075800
3209,1492035358.4907119274,0.053700
3403,1492035359.0280809402,-0.096300
3473,1492035359.2220430374,0.085500
3696,1492035359.8402369022,-0.006300
3753,1492035359.9971179962,0.084800
3954,1492035360.5544369221,-0.096600
4038,1492035360.7875039577,0.093200
4247,1492035361.3673501015,-0.057600
4303,1492035361.5230441093,0.056700
4478,1492035362.0084910393,-0.017100
4582,1492035362.2959289551,0.057300
4771,1492035362.8208498955,-0.096200
4853,1492035363.0478770733,0.079000
5000,1492035363.4563360214,-0.006200
5131,1492035363.8198099136,0.045600
5211,1492035364.0421500206,-0.053700
5381,1492035364.5153589249,0.070000
5488,1492035364.8143029213,0.016900
5687,1492035365.3654499054,0.086900
5767,1492035365.5872941017,-0.015200
5974,1492035366.1601450443,0.044300
6053,1492035366.3800749779,0.015000
6252,1492035366.9314970970,0.097900
6325,1492035367.1336610317,-0.086100
6531,1492035367.7043299675,0.055900
6609,1492035367.9260160923,0.008800
6807,1492035368.4780519009,0.019900
6879,1492035368.6780660152,-0.039200
7085,1492035369.2500979900,0.083600
7151,1492035369.4336960316,0.057500
7357,1492035370.0045421124,0.040000
7436,1492035370.2238650322,-0.040100
7635,1492035370.7770819664,0.077900
7804,1492035371.2446050644,-0.049700
7914,1492035371.5498220921,0.095600
8125,1492035372.1353559494,-0.094400
8193,1492035372.3241229057,0.071700
8415,1492035372.9401440620,0.020700
8478,1492035373.1152060032,0.085100
8558,1492035373.3367419243,-0.044000



Accel Z
S_i,S_t,S_x
745,1492035351.6554439068,-0.269500
751,1492035351.6718320847,-0.269500
1323,1492035353.2600810528,-0.393300
1029,1492035352.4439771175,-0.306600
1566,1492035353.9351420403,-0.269200
1308,1492035353.2184379101,-0.314400
1887,1492035354.8267049789,-0.214400
1586,1492035353.9908139706,-0.323900
2148,1492035355.5489599705,-0.354200
1864,1492035354.7628350258,-0.209200
3231,1492035358.5515420437,-0.303100
2151,1492035355.5570979118,-0.354200
3803,1492035360.1361689568,-0.333900
2430,1492035356.3301360607,-0.287700
4104,1492035360.9705359936,-0.271600
2980,1492035357.8549659252,-0.290800
4382,1492035361.7427120209,-0.243500
3252,1492035358.6095490456,-0.245500
4889,1492035363.1482191086,-0.200800
3809,1492035360.1530370712,-0.333900
5203,1492035364.0202209949,-0.215500
4067,1492035360.8676450253,-0.229700
5731,1492035365.4876229763,-0.225300
4356,1492035361.6704690456,-0.273800
5760,1492035365.5676639080,-0.299400
4624,1492035362.4124619961,-0.289300
6039,1492035366.3412768841,-0.223400
4910,1492035363.2068080902,-0.283600
6318,1492035367.1142189503,-0.380700
4938,1492035363.2840700150,-0.207000
6604,1492035367.9064300060,-0.252400
5451,1492035364.7108929157,-0.284700
7115,1492035369.3334779739,-0.231400
5737,1492035365.5042419434,-0.225300
7429,1492035370.2042400837,-0.265700
6023,1492035366.2966918945,-0.357000
7951,1492035371.6523320675,-0.216100
6295,1492035367.0508320332,-0.383100
8265,1492035372.5238900185,-0.225500
6581,1492035367.8428449631,-0.377300
6857,1492035368.6173040867,-0.278600
7128,1492035369.3694589138,-0.313100
7407,1492035370.1433899403,-0.322400
7671,1492035370.8759601116,-0.249800
7964,1492035371.6888139248,-0.322200
8239,1492035372.4517660141,-0.228700
8517,1492035373.2231218815,-0.245800



Gyro X
S_i,S_t,S_x
462,1492035350.8730831146,-0.054100
627,1492035351.3303289413,0.018900
755,1492035351.6856238842,-0.042900
912,1492035352.1210970879,0.051400
919,1492035352.1408190727,-0.061000
1135,1492035352.7394928932,0.041000
1182,1492035352.8704888821,-0.086900
1427,1492035353.5515649319,0.021400
1463,1492035353.6516649723,-0.010500
1653,1492035354.1790289879,0.079900
1700,1492035354.3092000484,-0.075500
1938,1492035354.9706480503,0.059300
2019,1492035355.1948258877,-0.020100
2151,1492035355.5593979359,-0.031100
2391,1492035356.2243289948,-0.053100
2429,1492035356.3297479153,0.028700
2580,1492035356.7480878830,0.024200
2700,1492035357.0810029507,0.034700
2859,1492035357.5219159126,-0.083100
2978,1492035357.8519289494,0.038000
3256,1492035358.6226410866,-0.063400
3319,1492035358.7982480526,0.097700
3541,1492035359.4134039879,-0.077300
3602,1492035359.5822401047,0.085900
3794,1492035360.1135239601,0.071400
3835,1492035360.2274749279,-0.018400
4102,1492035360.9673500061,-0.078100
4151,1492035361.1031820774,0.076000
4343,1492035361.6368479729,0.092400
4384,1492035361.7503960133,-0.048700
4603,1492035362.3569149971,0.068500
4652,1492035362.4927620888,0.090400
4933,1492035363.2727749348,-0.088100
5101,1492035363.7389559746,-0.065600
5170,1492035363.9304559231,0.069200
5382,1492035364.5206420422,-0.068700
5425,1492035364.6402230263,0.077600
5660,1492035365.2924759388,-0.077100
5718,1492035365.4537649155,0.078100
6034,1492035366.3297469616,-0.040100
6041,1492035366.3489079475,-0.078600
6495,1492035367.6068489552,-0.069000
6312,1492035367.0997951031,-0.033100
6710,1492035368.2112360001,-0.035300
6550,1492035367.7592089176,0.093900
6985,1492035368.9749100208,0.024500
6877,1492035368.6748859882,-0.028900
7319,1492035369.9016909599,-0.090400
7151,1492035369.4361200333,0.053600
7593,1492035370.6629149914,-0.084600
7426,1492035370.1982719898,-0.053000
7871,1492035371.4332969189,-0.091100
7663,1492035370.8559300900,0.018600
8157,1492035372.2265338898,-0.038600
7945,1492035371.6384260654,0.070000
8450,1492035373.0400259495,-0.071900
8223,1492035372.4097208977,0.035800
8450,1492035373.0400259495,-0.071900



Gyro Y
S_i,S_t,S_x
466,1492035350.8841099739,0.058800
485,1492035350.9368219376,0.088100
659,1492035351.4192359447,-0.092600
786,1492035351.7715630531,0.013600
937,1492035352.1908879280,-0.078000
1064,1492035352.5433158875,-0.022000
1223,1492035352.9843270779,-0.084800
1479,1492035353.6960890293,0.091200
1496,1492035353.7433059216,-0.064500
1893,1492035354.8452730179,-0.067300
1771,1492035354.5063700676,-0.096000
2184,1492035355.6506710052,-0.002100
2056,1492035355.2984709740,-0.075600
2432,1492035356.3381650448,0.029900
2331,1492035356.0583980083,-0.071200
2730,1492035357.1640579700,-0.067700
2617,1492035356.8509008884,-0.085400
3012,1492035357.9462950230,0.054000
2888,1492035357.6018741131,-0.077100
3279,1492035358.6867020130,-0.040200
3163,1492035358.3654859066,-0.094300
3568,1492035359.4880559444,0.060300
3430,1492035359.1057069302,-0.071200
3847,1492035360.2608020306,0.009400
3723,1492035359.9168300629,-0.089900
4113,1492035360.9981639385,0.002600
3994,1492035360.6678280830,-0.073200
4392,1492035361.7724919319,-0.042900
4269,1492035361.4312269688,-0.096400
4656,1492035362.5039730072,-0.082900
4540,1492035362.1812810898,-0.071900
4937,1492035363.2836930752,0.075000
4814,1492035362.9421820641,-0.072800
5219,1492035364.0670459270,-0.018500
5103,1492035363.7445700169,-0.099300
5462,1492035364.7434608936,-0.005600
5381,1492035364.5177869797,-0.078500
5766,1492035365.5869169235,0.010500
5644,1492035365.2482659817,-0.062000
6026,1492035366.3073608875,-0.035500
5926,1492035366.0296719074,-0.071400
6332,1492035367.1548769474,0.026000
6212,1492035366.8230609894,-0.095200
6583,1492035367.8508429527,-0.072200
6490,1492035367.5931420326,-0.096800
6878,1492035368.6776900291,0.055500
6762,1492035368.3559188843,-0.064500
7152,1492035369.4389228821,-0.056200
7036,1492035369.1168410778,-0.091500
7441,1492035370.2404000759,0.083900
7314,1492035369.8880679607,-0.091800
7685,1492035370.9173269272,-0.053300
7592,1492035370.6601181030,-0.064700
7989,1492035371.7605209351,-0.028500
7867,1492035371.4222369194,-0.084000
8268,1492035372.5347371101,-0.094700



Gyro Z
S_i,S_t,S_x
477,1492035350.9147229195,-0.051300
727,1492035351.6078400612,-0.049000
740,1492035351.6438438892,0.099500
1012,1492035352.3988840580,-0.079300
1026,1492035352.4381690025,0.027100
1290,1492035353.1707079411,-0.022700
1304,1492035353.2096459866,0.091200
1568,1492035353.9432160854,-0.042700
1578,1492035353.9711980820,0.064900
1842,1492035354.7039589882,-0.066000
1852,1492035354.7319469452,0.079500
2124,1492035355.4851219654,-0.092300
2145,1492035355.5432560444,0.060300
2407,1492035356.2684659958,-0.040400
2417,1492035356.2964560986,0.089300
2685,1492035357.0389928818,-0.073400
2695,1492035357.0669651031,0.064700
2960,1492035357.8018569946,-0.023200
2992,1492035357.8908150196,0.057100
3234,1492035358.5619618893,-0.097300
3244,1492035358.5900380611,0.057400
3505,1492035359.3131930828,-0.051800
3515,1492035359.3410630226,0.029600
3787,1492035360.0940520763,-0.070100
3805,1492035360.1442589760,0.093700
4062,1492035360.8565609455,-0.061500
4076,1492035360.8952660561,0.096500
4336,1492035361.6171751022,-0.093200
4350,1492035361.6560769081,0.086900
4615,1492035362.3896090984,-0.021500
4625,1492035362.4176940918,0.051800
4885,1492035363.1393840313,-0.098900
4895,1492035363.1676208973,0.052300
5163,1492035363.9112620354,-0.095300
5174,1492035363.9416749477,0.077000
5441,1492035364.6852591038,-0.057200
5454,1492035364.7216439247,0.089400
5715,1492035365.4455471039,-0.059300
5729,1492035365.4844501019,0.077300
6005,1492035366.2487189770,-0.028100
6015,1492035366.2768580914,0.091200
6279,1492035367.0088589191,-0.059600
6286,1492035367.0284850597,0.048000
6562,1492035367.7924718857,-0.018700
6575,1492035367.8284559250,0.087000
6833,1492035368.5532550812,-0.094800
6850,1492035368.6004528999,0.099200
7107,1492035369.3134629726,-0.086400
7114,1492035369.3331000805,0.027300
7385,1492035370.0849499702,-0.011800
7396,1492035370.1149780750,0.098800
7664,1492035370.8587260246,0.003700
7677,1492035370.8950989246,0.061500
7942,1492035371.6299729347,-0.033100
7959,1492035371.6772348881,0.078600
8224,1492035372.4125359058,-0.038200
8234,1492035372.4406850338,0.037900
8513,1492035373.2144839764,-0.055500



