Accel X
S_i,S_t,S_x



Accel Y
S_i,S_t,S_x
946,1492035168.9348831177,0.031300
1090,1492035169.3347799778,-0.043200
1147,1492035169.4908599854,0.083700
1369,1492035170.1071419716,-0.050200
1511,1492035170.5006210804,0.071000
1641,1492035170.8610110283,-0.086600
1718,1492035171.0750889778,0.087400
1872,1492035171.5038950443,-0.032800
2004,1492035171.8696019650,0.089500
2083,1492035172.0886209011,0.004200
2275,1492035172.6222460270,0.094400
2369,1492035172.8832490444,-0.026400
2639,1492035173.6337289810,0.039400
2757,1492035173.9608359337,-0.072000
2846,1492035174.2074859142,0.073400
3021,1492035174.6934249401,-0.046000
3132,1492035175.0011239052,0.057900
3350,1492035175.6057069302,-0.052300
3418,1492035175.7934620380,0.079500
3557,1492035176.1798250675,-0.013400
3689,1492035176.5458590984,0.064600
3776,1492035176.7873051167,-0.000500
3967,1492035177.3176829815,0.093100
4054,1492035177.5586800575,0.045000
4253,1492035178.1105000973,0.084700
4326,1492035178.3130578995,0.066600
4533,1492035178.8856549263,0.063000
4672,1492035179.2714509964,-0.026600
4797,1492035179.6188769341,0.053000
4890,1492035179.8776090145,0.000700
5089,1492035180.4295220375,0.077000
5169,1492035180.6519150734,-0.031600
5375,1492035181.2240159512,0.046100
5454,1492035181.4434149265,0.028000
5653,1492035181.9943079948,0.050200
5793,1492035182.3817319870,-0.092400
5932,1492035182.7677059174,0.063200
5998,1492035182.9508008957,0.096100
6211,1492035183.5414929390,0.075500
6405,1492035184.0794301033,-0.064300
6489,1492035184.3126580715,0.073500
6700,1492035184.8988060951,-0.088300
6760,1492035185.0661830902,0.080800
7221,1492035186.3462920189,0.023100
7046,1492035185.8598411083,0.088700
7538,1492035187.2305390835,-0.023100
7322,1492035186.6311039925,0.046300
7776,1492035187.8918070793,-0.093500
7608,1492035187.4254760742,0.078300
8054,1492035188.6654560566,-0.029000
7886,1492035188.1982700825,0.065300
8378,1492035189.5672860146,-0.076700
8164,1492035188.9716579914,0.053300
8660,1492035190.3502728939,-0.062600
8434,1492035189.7227320671,0.082000
8807,1492035190.7564868927,0.058000
8742,1492035190.5775051117,0.086500
8807,1492035190.7564868927,0.058000



Accel Z
S_i,S_t,S_x
925,1492035168.8765349388,-0.268300
1226,1492035169.7100660801,-0.223700
1204,1492035169.6491498947,-0.325200
2040,1492035171.9698541164,-0.241400
1775,1492035171.2346930504,-0.305100
2361,1492035172.8608369827,-0.227500
2061,1492035172.0279209614,-0.258700
2604,1492035173.5362811089,-0.206400
2339,1492035172.7998299599,-0.228600
2918,1492035174.4072120190,-0.205600
2610,1492035173.5531649590,-0.206400
3733,1492035176.6680099964,-0.201800
2645,1492035173.6505880356,-0.389200
4004,1492035177.4200770855,-0.260500
3467,1492035175.9301259518,-0.282200
4040,1492035177.5197999477,-0.345200
3746,1492035176.7038640976,-0.335400
4318,1492035178.2907400131,-0.350100
4021,1492035177.4670279026,-0.362200
4833,1492035179.7192859650,-0.201000
4303,1492035178.2490170002,-0.359700
5161,1492035180.6294589043,-0.295300
4582,1492035179.0214910507,-0.299000
5447,1492035181.4237520695,-0.260700
4860,1492035179.7945020199,-0.318600
5726,1492035182.1961910725,-0.257400
5132,1492035180.5493500233,-0.211700
6005,1492035182.9700310230,-0.254900
5424,1492035181.3599109650,-0.343600
7082,1492035185.9596889019,-0.211800
5704,1492035182.1348340511,-0.332600
7082,1492035185.9596889019,-0.211800
6011,1492035182.9868550301,-0.254900
7673,1492035187.6057510376,-0.260100
6539,1492035184.4517080784,-0.247300
7915,1492035188.2788949013,-0.207500
6817,1492035185.2248530388,-0.267300
8193,1492035189.0529429913,-0.283800
7096,1492035185.9985349178,-0.269100
8478,1492035189.8444819450,-0.218600
7372,1492035186.7701539993,-0.201000
7401,1492035186.8509778976,-0.233600
7936,1492035188.3373339176,-0.257200
8206,1492035189.0889379978,-0.258700
8513,1492035189.9418270588,-0.216900



Gyro X
S_i,S_t,S_x
733,1492035168.3457129002,0.041200
1008,1492035169.1096940041,0.074000
944,1492035168.9317018986,0.085300
1217,1492035169.6872339249,0.019200
1182,1492035169.5902819633,0.099200
1502,1492035170.4777030945,0.043500
1461,1492035170.3639020920,0.079500
1843,1492035171.4256720543,0.095000
1757,1492035171.1868319511,0.075500
2073,1492035172.0634739399,-0.081800
2024,1492035171.9274780750,0.099500
2365,1492035172.8744399548,-0.094800
2313,1492035172.7301259041,0.057600
2680,1492035173.7498590946,0.090800
2602,1492035173.5330979824,0.095900
2922,1492035174.4208679199,-0.021800
2880,1492035174.3040759563,0.043500
3195,1492035175.1774799824,0.076600
3165,1492035175.0944890976,0.092700
3389,1492035175.7153799534,-0.066100
3447,1492035175.8769290447,0.041100
3759,1492035176.7423369884,-0.026700
3763,1492035176.7532920837,-0.057700
4234,1492035178.0606091022,-0.094400
4048,1492035177.5441820621,-0.034100
4435,1492035178.6180651188,-0.065200
4282,1492035178.1935210228,0.028600
4799,1492035179.6269280910,-0.086300
4568,1492035178.9850680828,0.085100
5036,1492035180.2845098972,-0.077600
4883,1492035179.8602929115,-0.085700
5332,1492035181.1071100235,-0.074200
5227,1492035180.8155989647,0.093400
5603,1492035181.8578870296,-0.099000
5450,1492035181.4346299171,-0.065300
6052,1492035183.1029911041,0.091000
5684,1492035182.0820930004,0.010000
6275,1492035183.7214078903,-0.008400
5996,1492035182.9476370811,0.055500
6608,1492035184.6461400986,0.068100
6240,1492035183.6240479946,0.058000
6886,1492035185.4182701111,0.077500
6552,1492035184.4901270866,-0.058300
7112,1492035186.0454740524,0.016500
6837,1492035185.2819709778,0.018900
7387,1492035186.8142719269,0.018500
7082,1492035185.9620220661,0.095400
7577,1492035187.3417339325,-0.052100
7398,1492035186.8451728821,0.067900
7796,1492035187.9502179623,0.034100
7639,1492035187.5143189430,-0.004400
8066,1492035188.7012369633,-0.084000
7917,1492035188.2869019508,0.065900
8436,1492035189.7307670116,-0.093100
8235,1492035189.1719560623,-0.052200
8691,1492035190.4380350113,-0.090200
8468,1492035189.8193030357,0.036200
8806,1492035190.7561199665,-0.057400
8787,1492035190.7038888931,0.020700
8806,1492035190.7561199665,-0.057400



Gyro Y
S_i,S_t,S_x
826,1492035168.6043009758,-0.065200
964,1492035168.9874560833,-0.017200
1119,1492035169.4156489372,-0.078500
1234,1492035169.7345039845,0.085800
1405,1492035170.2088921070,-0.072200
1520,1492035170.5278799534,0.007200
1690,1492035170.9997329712,-0.099800
1805,1492035171.3201038837,0.089900
1979,1492035171.8030989170,-0.082000
2099,1492035172.1356279850,0.087700
2246,1492035172.5439870358,-0.076400
2377,1492035172.9077420235,0.089000
2535,1492035173.3471119404,-0.099700
2654,1492035173.6778640747,-0.016200
2816,1492035174.1269090176,-0.097500
2928,1492035174.4378380775,-0.014300
3095,1492035174.9010720253,-0.075700
3218,1492035175.2434248924,-0.053100
3373,1492035175.6713390350,-0.091500
3500,1492035176.0235519409,-0.075700
3659,1492035176.4644250870,-0.099800
3782,1492035176.8061780930,0.084600
3933,1492035177.2256720066,-0.062300
4060,1492035177.5779440403,-0.013200
4211,1492035177.9964990616,-0.083600
4327,1492035178.3180320263,-0.061200
4489,1492035178.7676401138,-0.098500
4584,1492035179.0295209885,-0.032800
4761,1492035179.5209429264,-0.059700
4895,1492035179.8940749168,0.024000
5050,1492035180.3233089447,-0.092700
5176,1492035180.6735351086,-0.031600
5335,1492035181.1155951023,-0.097700
5469,1492035181.4876799583,0.065700
5613,1492035181.8849859238,-0.087500
5732,1492035182.2152049541,0.026300
5888,1492035182.6479079723,-0.074100
6019,1492035183.0109438896,0.087100
6173,1492035183.4385340214,-0.098200
6297,1492035183.7822909355,-0.070800
6448,1492035184.2012829781,-0.090900
6564,1492035184.5237040520,-0.077300
6726,1492035184.9736750126,-0.073300
6853,1492035185.3264279366,0.077400
7004,1492035185.7451400757,-0.082800
7100,1492035186.0120830536,0.080700
7280,1492035186.5164868832,-0.066900
7402,1492035186.8559730053,-0.025200
7565,1492035187.3085470200,-0.093000
7658,1492035187.5662341118,0.026000
7843,1492035188.0811479092,-0.062700
7966,1492035188.4235301018,-0.041500
8120,1492035188.8517429829,-0.055500
8254,1492035189.2248690128,0.070000
8397,1492035189.6224429607,-0.061700
8516,1492035189.9522891045,-0.053400



Gyro Z
S_i,S_t,S_x
811,1492035168.5626740456,-0.070700
960,1492035168.9761068821,-0.046100
1096,1492035169.3531179428,-0.068800
1239,1492035169.7485220432,0.070400
1378,1492035170.1343340874,-0.064500
1524,1492035170.5386919975,0.003800
1664,1492035170.9275469780,-0.099200
1809,1492035171.3312730789,-0.023000
1949,1492035171.7198410034,-0.086000
2088,1492035172.1050889492,-0.020500
2224,1492035172.4826550484,-0.043800
2369,1492035172.8856739998,0.015500
2505,1492035173.2635569572,-0.026100
2650,1492035173.6670370102,-0.010200
2787,1492035174.0467329025,-0.069600
2932,1492035174.4486401081,-0.089600
3072,1492035174.8372809887,-0.050900
3214,1492035175.2303979397,-0.002100
3358,1492035175.6297030449,-0.086600
3496,1492035176.0123369694,0.093100
3636,1492035176.4009850025,-0.059200
3774,1492035176.7841269970,0.029600
3914,1492035177.1731429100,-0.059400
4056,1492035177.5667281151,0.014100
4192,1492035177.9441640377,-0.077900
4331,1492035178.3291659355,0.083200
4474,1492035178.7259519100,-0.091300
4613,1492035179.1104390621,0.072800
4746,1492035179.4792990685,-0.037100
4891,1492035179.8828530312,-0.044300
5031,1492035180.2704730034,-0.016000
5172,1492035180.6626639366,0.006800
5316,1492035181.0626590252,-0.073700
5454,1492035181.4458429813,0.085800
5594,1492035181.8329160213,-0.049800
5737,1492035182.2286028862,-0.093100
5877,1492035182.6174919605,-0.071200
6015,1492035183.0000820160,-0.061700
6155,1492035183.3884959221,-0.074100
6293,1492035183.7710590363,0.065300
6429,1492035184.1483058929,-0.030300
6567,1492035184.5318720341,-0.024300
6707,1492035184.9208490849,-0.047400
6849,1492035185.3153889179,-0.073400
6989,1492035185.7034978867,-0.094500
7127,1492035186.0871200562,0.090100
7265,1492035186.4744620323,-0.043400
7403,1492035186.8586549759,0.099700
7546,1492035187.2554659843,-0.082800
7684,1492035187.6386721134,-0.027700
7824,1492035188.0283520222,-0.046400
7962,1492035188.4124679565,0.062500
8105,1492035188.8099339008,-0.073900
8243,1492035189.1944289207,0.009100
8379,1492035189.5723950863,-0.024600
8521,1492035189.9663269520,0.032400
8664,1492035190.3639280796,-0.072400
8825,1492035190.8088340759,0.028000



