Accel X
P_i,P_t,P_x,T_i,T_t,T_p
825,1492035168.5990650654,-0.089000,639,1492035168.0826520920,-0.657000
1233,1492035169.7292599678,-0.005400,939,1492035168.9154469967,-0.940000
1519,1492035170.5226500034,0.136900,1218,1492035169.6876099110,-0.862900
1797,1492035171.2955460548,-0.002200,1504,1492035170.4809999466,-0.984200
2082,1492035172.0858139992,0.100700,1789,1492035171.2736649513,-0.884700
2354,1492035172.8416650295,0.084400,2068,1492035172.0470139980,-0.703200
2646,1492035173.6533920765,0.050100,2353,1492035172.8388500214,-0.751600
2925,1492035174.4269518852,0.070000,2631,1492035173.6116828918,-0.929900
3210,1492035175.2170639038,0.196200,2910,1492035174.3852109909,-0.845200
3496,1492035176.0099070072,-0.003100,3196,1492035175.1778469086,-0.995400
3775,1492035176.7845029831,-0.050800,3482,1492035175.9712700844,-0.976000
4053,1492035177.5557720661,0.068600,3754,1492035176.7260150909,-0.694900
4332,1492035178.3295431137,-0.010100,4039,1492035177.5170021057,-0.807200
4611,1492035179.1024060249,-0.003700,4318,1492035178.2907400131,-0.584000
4882,1492035179.8552930355,-0.030500,4597,1492035179.0635650158,-0.978600
5168,1492035180.6490979195,0.088400,4875,1492035179.8364250660,-0.570000
5453,1492035181.4406149387,0.060900,5154,1492035180.6102640629,-0.600300
5732,1492035182.2129058838,0.049600,5439,1492035181.4017241001,-0.682300
6011,1492035182.9868550301,0.142000,5718,1492035182.1736459732,-0.894600
6290,1492035183.7606399059,0.199400,5997,1492035182.9480121136,-0.951000
6725,1492035184.9685370922,-0.049400,6275,1492035183.7190539837,-0.886700
7125,1492035186.0790588856,0.119900,6547,1492035184.4739620686,-0.802600
7401,1492035186.8509778976,0.177600,6832,1492035185.2657380104,-0.567800
7680,1492035187.6249639988,0.144800,7110,1492035186.0374209881,-0.997400
7957,1492035188.3959629536,0.072000,7387,1492035186.8118441105,-0.933700
8235,1492035189.1695489883,0.031200,7665,1492035187.5832819939,-0.978500
8513,1492035189.9418270588,0.015000,7943,1492035188.3571250439,-0.862900
,,,8221,1492035189.1306130886,-0.953300
,,,8499,1492035189.9025559425,-0.988300
,,,8799,1492035190.7343940735,-0.870900



Accel Y
P_i,P_t,P_x,T_i,T_t,T_p
953,1492035168.9545280933,0.626700,1068,1492035169.2732529640,-0.159800
1176,1492035169.5710139275,0.502900,1347,1492035170.0458838940,-0.177900
1518,1492035170.5198390484,0.494100,1633,1492035170.8389790058,-0.170400
1754,1492035171.1758389473,0.496800,1868,1492035171.4926729202,-0.150300
2039,1492035171.9670500755,0.440300,2075,1492035172.0666620731,-0.246600
2311,1492035172.7220749855,0.456400,2353,1492035172.8388500214,-0.202800
2646,1492035173.6533920765,0.651600,2753,1492035173.9495921135,-0.171300
2874,1492035174.2854630947,0.473900,3017,1492035174.6822080612,-0.156300
3167,1492035175.0976660252,0.491900,3346,1492035175.5944850445,-0.136100
3446,1492035175.8717079163,0.592800,3553,1492035176.1685979366,-0.176100
3718,1492035176.6261689663,0.544800,3760,1492035176.7427060604,-0.268100
4003,1492035177.4172670841,0.476600,4039,1492035177.5170021057,-0.290800
4282,1492035178.1910929680,0.516500,4318,1492035178.2907400131,-0.449500
4561,1492035178.9637269974,0.593200,4668,1492035179.2602200508,-0.132600
4832,1492035179.7164781094,0.496000,4875,1492035179.8364250660,-0.220900
5118,1492035180.5105769634,0.515400,5161,1492035180.6294589043,-0.200700
5410,1492035181.3220388889,0.514100,5439,1492035181.4017241001,-0.265000
5682,1492035182.0739340782,0.486900,5789,1492035182.3709640503,-0.161200
5968,1492035182.8671009541,0.516900,5990,1492035182.9283509254,-0.112900
6247,1492035183.6412889957,0.533600,6397,1492035184.0574650764,-0.178300
6518,1492035184.3931701183,0.530200,6696,1492035184.8876791000,-0.152600
6803,1492035185.1858670712,0.488900,7217,1492035186.3350629807,-0.130900
7075,1492035185.9400339127,0.476200,7530,1492035187.2084510326,-0.112300
7351,1492035186.7119340897,0.587500,7772,1492035187.8808360100,-0.186400
7629,1492035187.4839510918,0.559000,8050,1492035188.6542329788,-0.166100
7914,1492035188.2762229443,0.595700,8370,1492035189.5448238850,-0.146600
8192,1492035189.0501348972,0.619400,8656,1492035190.3390989304,-0.157800
8470,1492035189.8224980831,0.556400,,,
8777,1492035190.6741330624,0.521600,,,



Accel Z
P_i,P_t,P_x,T_i,T_t,T_p
932,1492035168.8960640430,0.314800,1204,1492035169.6491498947,-0.325200
1218,1492035169.6876099110,0.320000,1803,1492035171.3121070862,-0.356700
1796,1492035171.2925870419,0.301900,2339,1492035172.7998299599,-0.228600
2068,1492035172.0470139980,0.439800,2367,1492035172.8776268959,-0.227500
2346,1492035172.8192000389,0.552900,2645,1492035173.6505880356,-0.389200
2631,1492035173.6116828918,0.278000,3489,1492035175.9906909466,-0.275700
2910,1492035174.3852109909,0.727000,3746,1492035176.7038640976,-0.335400
3475,1492035175.9517331123,0.398100,4024,1492035177.4754400253,-0.362200
3753,1492035176.7232210636,0.324500,4303,1492035178.2490170002,-0.359700
4025,1492035177.4782400131,0.395600,4604,1492035179.0828039646,-0.336600
4310,1492035178.2683899403,0.408000,5132,1492035180.5493500233,-0.211700
4589,1492035179.0411210060,0.359300,5424,1492035181.3599109650,-0.343600
4867,1492035179.8139069080,0.583500,5704,1492035182.1348340511,-0.332600
5153,1492035180.6074559689,0.776900,5982,1492035182.9061241150,-0.361600
5432,1492035181.3819539547,0.287300,6817,1492035185.2248530388,-0.267300
5711,1492035182.1544659138,0.231700,6846,1492035185.3048219681,-0.402000
6275,1492035183.7190539837,0.563700,7401,1492035186.8509778976,-0.233600
6546,1492035184.4712879658,0.420100,7679,1492035187.6221599579,-0.260100
6824,1492035185.2442879677,0.498600,7957,1492035188.3959629536,-0.354900
7110,1492035186.0374209881,0.212400,8470,1492035189.8224980831,-0.256700
7386,1492035186.8090190887,0.389800,8799,1492035190.7343940735,-0.392800
7665,1492035187.5832819939,0.415300,,,
7943,1492035188.3571250439,0.567700,,,
8220,1492035189.1277608871,0.402900,,,
8792,1492035190.7150859833,0.685600,,,



Gyro X
P_i,P_t,P_x,T_i,T_t,T_p
744,1492035168.3761138916,0.196800,941,1492035168.9232840538,-0.179100
989,1492035169.0567250252,0.228100,1212,1492035169.6731860638,-0.298200
1194,1492035169.6234979630,0.184700,1498,1492035170.4664809704,-0.240700
1479,1492035170.4139149189,0.298600,1801,1492035171.3089389801,-0.190300
1768,1492035171.2177040577,0.214400,2065,1492035172.0410358906,-0.308500
2046,1492035171.9885699749,0.178300,2361,1492035172.8632259369,-0.230300
2320,1492035172.7497498989,0.140700,2642,1492035173.6445660591,-0.235600
2613,1492035173.5640599728,0.169100,2906,1492035174.3764209747,-0.171800
2895,1492035174.3457620144,0.181200,3191,1492035175.1667668819,-0.209600
3177,1492035175.1278810501,0.263800,3377,1492035175.6824400425,-0.206000
3462,1492035175.9185080528,0.178200,3755,1492035176.7312541008,-0.227900
3796,1492035176.8452119827,0.273800,4196,1492035177.9551188946,-0.226100
4067,1492035177.5968821049,0.354500,4427,1492035178.5954809189,-0.217700
4293,1492035178.2233688831,0.173800,4768,1492035179.5406849384,-0.166900
4575,1492035179.0047180653,0.141800,5024,1492035180.2513051033,-0.203900
4890,1492035179.8800549507,0.264900,5313,1492035181.0542399883,-0.213500
5238,1492035180.8460209370,0.249400,5595,1492035181.8357169628,-0.204800
5457,1492035181.4544439316,0.317100,6003,1492035182.9668409824,-0.218800
5695,1492035182.1123609543,0.148500,6270,1492035183.7078649998,-0.390200
6014,1492035182.9973349571,0.319500,6555,1492035184.4985330105,-0.161400
6251,1492035183.6549398899,0.213000,6841,1492035185.2932310104,-0.231000
6567,1492035184.5318720341,0.307600,7108,1492035186.0342450142,-0.342600
6855,1492035185.3321509361,0.275900,7383,1492035186.8033111095,-0.248900
7089,1492035185.9813048840,0.140000,7565,1492035187.3085470200,-0.168600
7417,1492035186.8980929852,0.238500,7784,1492035187.9166109562,-0.295500
7647,1492035187.5357799530,0.196000,8058,1492035188.6786739826,-0.178400
7924,1492035188.3065559864,0.221100,8394,1492035189.6141688824,-0.217000
8253,1492035189.2220630646,0.264100,8664,1492035190.3639280796,-0.412900
8479,1492035189.8497080803,0.169400,,,
8795,1492035190.7257699966,0.411700,,,



Gyro Y
P_i,P_t,P_x,T_i,T_t,T_p
952,1492035168.9541499615,0.248500,870,1492035168.7262589931,-0.372500
1230,1492035169.7232739925,0.376200,1153,1492035169.5101358891,-0.392900
1516,1492035170.5166580677,0.437000,1442,1492035170.3109700680,-0.415600
1801,1492035171.3089389801,0.495900,1724,1492035171.0940051079,-0.362200
2079,1492035172.0798299313,0.442400,2009,1492035171.8862390518,-0.374500
2365,1492035172.8744399548,0.422700,2287,1492035172.6583778858,-0.392600
2642,1492035173.6445660591,0.519000,2565,1492035173.4301280975,-0.374900
2924,1492035174.4264769554,0.419700,2850,1492035174.2210359573,-0.372500
3184,1492035175.1474699974,0.209800,3132,1492035175.0035519600,-0.419200
3466,1492035175.9297389984,0.213600,3414,1492035175.7848529816,-0.388800
3744,1492035176.7008221149,0.259500,3692,1492035176.5563859940,-0.416800
4048,1492035177.5441820621,0.537000,3970,1492035177.3282439709,-0.423800
4300,1492035178.2430379391,0.184800,4252,1492035178.1101300716,-0.390800
4579,1492035179.0156619549,0.173500,4531,1492035178.8824748993,-0.409700
4883,1492035179.8602929115,0.445100,4805,1492035179.6435830593,-0.408300
5164,1492035180.6403129101,0.460600,5087,1492035180.4263420105,-0.425500
5450,1492035181.4346299171,0.500900,5376,1492035181.2289850712,-0.468700
5728,1492035182.2042460442,0.534800,5654,1492035181.9995369911,-0.402900
5984,1492035182.9139699936,0.222800,5936,1492035182.7810769081,-0.432900
6285,1492035183.7490611076,0.465700,6214,1492035183.5522389412,-0.431200
6559,1492035184.5097529888,0.414600,6485,1492035184.3038570881,-0.473800
6840,1492035185.2904279232,0.476000,6766,1492035185.0853590965,-0.448600
7096,1492035186.0009570122,0.224600,7044,1492035185.8566520214,-0.482900
7398,1492035186.8451728821,0.398400,7321,1492035186.6307280064,-0.499200
7654,1492035187.5553309917,0.223100,7606,1492035187.4221858978,-0.479800
7954,1492035188.3899350166,0.529400,7883,1492035188.1922841072,-0.493300
8235,1492035189.1719560623,0.469100,8164,1492035188.9740889072,-0.471800
8512,1492035189.9414579868,0.357700,8438,1492035189.7361090183,-0.460200
,,,8727,1492035190.5384280682,-0.399300



Gyro Z
P_i,P_t,P_x,T_i,T_t,T_p
948,1492035168.9429199696,0.730600,859,1492035168.6956970692,-0.647200
1227,1492035169.7150468826,0.773800,1152,1492035169.5073280334,-0.664800
1512,1492035170.5055980682,0.849000,1431,1492035170.2810940742,-0.694200
1801,1492035171.3089389801,0.753800,1716,1492035171.0719270706,-0.723000
2079,1492035172.0798299313,0.907000,1997,1492035171.8528530598,-0.645300
2361,1492035172.8632259369,0.894900,2272,1492035172.6163940430,-0.685700
2642,1492035173.6445660591,0.838600,2557,1492035173.4085700512,-0.722800
2920,1492035174.4152529240,0.883800,2835,1492035174.1796929836,-0.702000
3202,1492035175.1970429420,0.886700,3120,1492035174.9702870846,-0.723100
3488,1492035175.9903230667,0.932400,3410,1492035175.7738759518,-0.706800
3766,1492035176.7617061138,0.912200,3684,1492035176.5342779160,-0.751200
4044,1492035177.5332870483,0.939400,3959,1492035177.2977359295,-0.685200
4322,1492035178.3043711185,0.957400,4245,1492035178.0905139446,-0.708400
4601,1492035179.0768690109,0.897100,4523,1492035178.8605370522,-0.707100
4879,1492035179.8495819569,0.796000,4797,1492035179.6213181019,-0.706200
5164,1492035180.6403129101,0.882000,5083,1492035180.4153430462,-0.669200
5446,1492035181.4233720303,0.899200,5368,1492035181.2074561119,-0.681300
5724,1492035182.1928989887,0.886600,5643,1492035181.9692571163,-0.692800
6003,1492035182.9668409824,0.868100,5925,1492035182.7504990101,-0.731800
6285,1492035183.7490611076,0.881400,6199,1492035183.5102579594,-0.739100
6559,1492035184.5097529888,0.835700,6478,1492035184.2842030525,-0.787700
6840,1492035185.2904279232,0.756700,6755,1492035185.0546610355,-0.734200
7118,1492035186.0622060299,0.858900,7037,1492035185.8369569778,-0.730800
7394,1492035186.8339059353,0.894000,7320,1492035186.6279189587,-0.717800
7672,1492035187.6053750515,0.820900,7594,1492035187.3889510632,-0.753100
7953,1492035188.3871290684,0.901600,7868,1492035188.1506381035,-0.728100
8231,1492035189.1610620022,0.924400,8149,1492035188.9323070049,-0.735700
8508,1492035189.9303069115,0.813200,8427,1492035189.7054829597,-0.786900
8798,1492035190.7340240479,0.756200,8735,1492035190.5606379509,-0.631700



