timestamp_before,timestamp_after,accel_x,accel_y,accel_z,gyro_x,gyro_y,gryo_z
1492035552.3087608814,1492035552.3116209507, -0.1831,  0.0227,  0.0207,  0.0086,  0.0041, -0.0215
1492035552.3120830059,1492035552.3143849373, -0.1831,  0.0227,  0.0181,  0.0086,  0.0041, -0.0215
1492035552.3147580624,1492035552.3170540333, -0.1836,  0.0222,  0.0181,  0.0086,  0.0041, -0.0215
1492035552.3174250126,1492035552.3197309971, -0.1836,  0.0222,  0.0181,  0.0086,  0.0028, -0.0240
1492035552.3201038837,1492035552.3225319386, -0.1836,  0.0222,  0.0181,  0.0078,  0.0028, -0.0240
1492035552.3229060173,1492035552.3252019882, -0.1836,  0.0222,  0.0181,  0.0078,  0.0028, -0.0240
1492035552.3255729675,1492035552.3278739452, -0.1836,  0.0222,  0.0181,  0.0078,  0.0028, -0.0240
1492035552.3282430172,1492035552.3306050301, -0.1836,  0.0222,  0.0181,  0.0071,  0.0016, -0.0229
1492035552.3310329914,1492035552.3333520889, -0.1836,  0.0222,  0.0181,  0.0071,  0.0016, -0.0229
1492035552.3337221146,1492035552.3360190392, -0.1843,  0.0209,  0.0178,  0.0071,  0.0016, -0.0229
1492035552.3363909721,1492035552.3386840820, -0.1843,  0.0209,  0.0178,  0.0071,  0.0016, -0.0229
1492035552.3390541077,1492035552.3416779041, -0.1843,  0.0209,  0.0178,  0.0063,  0.0012, -0.0226
1492035552.3420469761,1492035552.3443479538, -0.1843,  0.0209,  0.0178,  0.0063,  0.0012, -0.0226
1492035552.3447198868,1492035552.3470149040, -0.1843,  0.0209,  0.0178,  0.0063,  0.0012, -0.0226
1492035552.3473858833,1492035552.3496890068, -0.1843,  0.0209,  0.0178,  0.0063,  0.0012, -0.0226
1492035552.3500559330,1492035552.3524329662, -0.1843,  0.0209,  0.0178,  0.0049,  0.0012, -0.0227
1492035552.3528029919,1492035552.3551108837, -0.1832,  0.0218,  0.0199,  0.0049,  0.0012, -0.0227
1492035552.3554799557,1492035552.3577790260, -0.1832,  0.0218,  0.0199,  0.0049,  0.0012, -0.0227
1492035552.3581480980,1492035552.3604741096, -0.1832,  0.0218,  0.0199,  0.0049,  0.0012, -0.0227
1492035552.3608450890,1492035552.3632578850, -0.1832,  0.0218,  0.0199,  0.0048,  0.0010, -0.0227
1492035552.3636300564,1492035552.3659329414, -0.1832,  0.0218,  0.0199,  0.0048,  0.0010, -0.0227
1492035552.3663020134,1492035552.3686070442, -0.1832,  0.0218,  0.0199,  0.0048,  0.0010, -0.0227
1492035552.3689749241,1492035552.3713960648, -0.1832,  0.0218,  0.0199,  0.0048,  0.0011, -0.0224
1492035552.3717970848,1492035552.3741118908, -0.1832,  0.0222,  0.0200,  0.0065,  0.0011, -0.0224
1492035552.3744840622,1492035552.3767919540, -0.1835,  0.0222,  0.0200,  0.0065,  0.0011, -0.0224
1492035552.3771619797,1492035552.3794639111, -0.1835,  0.0222,  0.0200,  0.0065,  0.0011, -0.0224
1492035552.3798339367,1492035552.3822970390, -0.1835,  0.0222,  0.0200,  0.0081,  0.0014, -0.0231
1492035552.3826749325,1492035552.3851079941, -0.1835,  0.0222,  0.0200,  0.0081,  0.0014, -0.0231
1492035552.3854870796,1492035552.3884510994, -0.1835,  0.0222,  0.0200,  0.0081,  0.0014, -0.0231
1492035552.3888370991,1492035552.3912129402, -0.1835,  0.0222,  0.0200,  0.0081,  0.0014, -0.0309
1492035552.3915851116,1492035552.3938879967, -0.1835,  0.0222,  0.0198,  0.0097,  0.0015, -0.0241
1492035552.3942599297,1492035552.3965559006, -0.1827,  0.0228,  0.0198,  0.0097,  0.0015, -0.0241
1492035552.3969240189,1492035552.3992259502, -0.1827,  0.0228,  0.0198,  0.0097,  0.0015, -0.0241
1492035552.3995950222,1492035552.4020628929, -0.1827,  0.0228,  0.0198,  0.0097,  0.0003, -0.0250
1492035552.4024400711,1492035552.4048678875, -0.1827,  0.0228,  0.0198,  0.0074,  0.0003, -0.0250
1492035552.4052460194,1492035552.4076690674, -0.1827,  0.0228,  0.0198,  0.0074,  0.0003, -0.0250
1492035552.4080450535,1492035552.4104878902, -0.1827,  0.0228,  0.0198,  0.0074,  0.0003, -0.0250
1492035552.4108629227,1492035552.4132881165, -0.1827,  0.0228,  0.0198,  0.0048, -0.0003, -0.0261
1492035552.4136660099,1492035552.4160959721, -0.1839,  0.0192,  0.0163,  0.0048, -0.0003, -0.0261
1492035552.4164741039,1492035552.4188981056, -0.1839,  0.0192,  0.0163,  0.0048, -0.0003, -0.0261
1492035552.4192750454,1492035552.4216279984, -0.1839,  0.0192,  0.0163,  0.0048, -0.0003, -0.0261
1492035552.4219970703,1492035552.4242980480, -0.1839,  0.0192,  0.0163,  0.0062, -0.0001, -0.0249
1492035552.4248220921,1492035552.4271171093, -0.1839,  0.0192,  0.0163,  0.0062, -0.0001, -0.0249
1492035552.4274880886,1492035552.4297919273, -0.1839,  0.0192,  0.0163,  0.0062, -0.0001, -0.0249
1492035552.4301590919,1492035552.4324541092, -0.1839,  0.0192,  0.0163,  0.0062, -0.0001, -0.0208
1492035552.4328229427,1492035552.4351210594, -0.1837,  0.0158,  0.0215,  0.0052, -0.0004, -0.0208
1492035552.4354889393,1492035552.4377870560, -0.1837,  0.0158,  0.0215,  0.0052, -0.0004, -0.0208
1492035552.4381570816,1492035552.4405579567, -0.1837,  0.0158,  0.0215,  0.0052, -0.0004, -0.0208
1492035552.4409279823,1492035552.4432311058, -0.1837,  0.0158,  0.0215,  0.0052, -0.0021, -0.0193
1492035552.4436020851,1492035552.4459071159, -0.1837,  0.0158,  0.0215,  0.0046, -0.0021, -0.0193
1492035552.4462759495,1492035552.4485750198, -0.1837,  0.0158,  0.0215,  0.0046, -0.0021, -0.0193
1492035552.4489450455,1492035552.4513990879, -0.1837,  0.0158,  0.0215,  0.0046, -0.0021, -0.0193
1492035552.4517769814,1492035552.4542050362, -0.1843,  0.0193,  0.0192,  0.0041, -0.0028, -0.0185
1492035552.4545838833,1492035552.4570090771, -0.1843,  0.0193,  0.0192,  0.0041, -0.0028, -0.0185
1492035552.4573860168,1492035552.4598090649, -0.1843,  0.0193,  0.0192,  0.0041, -0.0028, -0.0185
1492035552.4601960182,1492035552.4626190662, -0.1843,  0.0193,  0.0192,  0.0041, -0.0028, -0.0185
1492035552.4629950523,1492035552.4654200077, -0.1843,  0.0193,  0.0192, -0.0049, -0.0037, -0.0196
1492035552.4657950401,1492035552.4682159424, -0.1843,  0.0193,  0.0192, -0.0049, -0.0037, -0.0196
1492035552.4685919285,1492035552.4710249901, -0.1843,  0.0193,  0.0192, -0.0049, -0.0037, -0.0196
1492035552.4714019299,1492035552.4738249779, -0.1841,  0.0161,  0.0133, -0.0049, -0.0037, -0.0254
1492035552.4742031097,1492035552.4766199589, -0.1841,  0.0161,  0.0133, -0.0294, -0.0070, -0.0254
1492035552.4769959450,1492035552.4794149399, -0.1841,  0.0161,  0.0133, -0.0294, -0.0070, -0.0254
1492035552.4797930717,1492035552.4823560715, -0.1841,  0.0161,  0.0133, -0.0294, -0.0070, -0.0254
1492035552.4827260971,1492035552.4850289822, -0.1841,  0.0161,  0.0133, -0.0385, -0.0032, -0.0232
1492035552.4853990078,1492035552.4877040386, -0.1841,  0.0161,  0.0133, -0.0385, -0.0032, -0.0232
1492035552.4880719185,1492035552.4905889034, -0.1841,  0.0161,  0.0133, -0.0385, -0.0032, -0.0232
1492035552.4909639359,1492035552.4933509827, -0.1841,  0.0233,  0.0120, -0.0385, -0.0032, -0.0232
1492035552.4937241077,1492035552.4962511063, -0.1814,  0.0233,  0.0120, -0.0320,  0.0016, -0.0128
1492035552.4966280460,1492035552.4990150928, -0.1814,  0.0233,  0.0120, -0.0320,  0.0016, -0.0128
1492035552.5001730919,1492035552.5026109219, -0.1814,  0.0233,  0.0120, -0.0320,  0.0016, -0.0128
1492035552.5029931068,1492035552.5054180622, -0.1814,  0.0233,  0.0120, -0.0290,  0.0027, -0.0066
1492035552.5057981014,1492035552.5082230568, -0.1814,  0.0233,  0.0120, -0.0290,  0.0027, -0.0066
1492035552.5085999966,1492035552.5110409260, -0.1814,  0.0233,  0.0120, -0.0290,  0.0027, -0.0066
1492035552.5114200115,1492035552.5138399601, -0.1863,  0.0118,  0.0215, -0.0290,  0.0027, -0.0066
1492035552.5142180920,1492035552.5166399479, -0.1863,  0.0118,  0.0215, -0.0287,  0.0010, -0.0033
1492035552.5170168877,1492035552.5194449425, -0.1863,  0.0118,  0.0215, -0.0287,  0.0010, -0.0033
1492035552.5198218822,1492035552.5221700668, -0.1863,  0.0118,  0.0215, -0.0287,  0.0010, -0.0033
1492035552.5225419998,1492035552.5248460770, -0.1863,  0.0118,  0.0215, -0.0287,  0.0010, -0.0033
1492035552.5252170563,1492035552.5275208950, -0.1863,  0.0118,  0.0215, -0.0255,  0.0025, -0.0006
1492035552.5278899670,1492035552.5302340984, -0.1863,  0.0118,  0.0215, -0.0255,  0.0025, -0.0006
1492035552.5306029320,1492035552.5329079628, -0.1863,  0.0331,  0.0124, -0.0255,  0.0025, -0.0006
1492035552.5332760811,1492035552.5355730057, -0.1860,  0.0331,  0.0124, -0.0255,  0.0025, -0.0009
1492035552.5359430313,1492035552.5382421017, -0.1860,  0.0331,  0.0124, -0.0199,  0.0059, -0.0009
1492035552.5387289524,1492035552.5410439968, -0.1860,  0.0331,  0.0124, -0.0199,  0.0059, -0.0009
1492035552.5414140224,1492035552.5437130928, -0.1860,  0.0331,  0.0124, -0.0199,  0.0059, -0.0009
1492035552.5440840721,1492035552.5463910103, -0.1860,  0.0331,  0.0124, -0.0121,  0.0053, -0.0049
1492035552.5467588902,1492035552.5490550995, -0.1860,  0.0331,  0.0124, -0.0141,  0.0053, -0.0049
1492035552.5494239330,1492035552.5517690182, -0.1860,  0.0331,  0.0124, -0.0141,  0.0053, -0.0049
1492035552.5521419048,1492035552.5544419289, -0.1851,  0.0193,  0.0209, -0.0141,  0.0053, -0.0049
1492035552.5548110008,1492035552.5571119785, -0.1851,  0.0193,  0.0209, -0.0110,  0.0042, -0.0077
1492035552.5574820042,1492035552.5597798824, -0.1851,  0.0193,  0.0209, -0.0110,  0.0042, -0.0077
1492035552.5602869987,1492035552.5626089573, -0.1851,  0.0193,  0.0209, -0.0110,  0.0042, -0.0077
1492035552.5629789829,1492035552.5652780533, -0.1851,  0.0193,  0.0209, -0.0110,  0.0042, -0.0077
1492035552.5656499863,1492035552.5679550171, -0.1851,  0.0193,  0.0209, -0.0113,  0.0041, -0.0082
1492035552.5683250427,1492035552.5707709789, -0.1851,  0.0193,  0.0209, -0.0113,  0.0041, -0.0082
1492035552.5711479187,1492035552.5735731125, -0.1843,  0.0164,  0.0225, -0.0113,  0.0041, -0.0082
1492035552.5739510059,1492035552.5763809681, -0.1843,  0.0164,  0.0225, -0.0113,  0.0041, -0.0082
1492035552.5767600536,1492035552.5791869164, -0.1843,  0.0164,  0.0225, -0.0117,  0.0038, -0.0080
1492035552.5795650482,1492035552.5819358826, -0.1843,  0.0164,  0.0225, -0.0117,  0.0038, -0.0080
1492035552.5823059082,1492035552.5846180916, -0.1843,  0.0164,  0.0225, -0.0117,  0.0038, -0.0080
1492035552.5849881172,1492035552.5872879028, -0.1843,  0.0164,  0.0225, -0.0117,  0.0022, -0.0089
1492035552.5876569748,1492035552.5899589062, -0.1843,  0.0164,  0.0225, -0.0106,  0.0022, -0.0089
1492035552.5903899670,1492035552.5928120613, -0.1841,  0.0220,  0.0218, -0.0106,  0.0022, -0.0089
1492035552.5931890011,1492035552.5956189632, -0.1841,  0.0220,  0.0218, -0.0106,  0.0022, -0.0089
1492035552.5959970951,1492035552.5984249115, -0.1841,  0.0220,  0.0218, -0.0102,  0.0014, -0.0096
1492035552.5988030434,1492035552.6011788845, -0.1841,  0.0220,  0.0218, -0.0102,  0.0014, -0.0096
1492035552.6015520096,1492035552.6038489342, -0.1841,  0.0220,  0.0218, -0.0102,  0.0014, -0.0096
1492035552.6042180061,1492035552.6065249443, -0.1841,  0.0220,  0.0218, -0.0102,  0.0014, -0.0096
1492035552.6068940163,1492035552.6091940403, -0.1841,  0.0220,  0.0218, -0.0086,  0.0021, -0.0107
1492035552.6095650196,1492035552.6119780540, -0.1841,  0.0298,  0.0182, -0.0086,  0.0021, -0.0107
1492035552.6123559475,1492035552.6147820950, -0.1887,  0.0251,  0.0182, -0.0086,  0.0021, -0.0107
1492035552.6151599884,1492035552.6175899506, -0.1887,  0.0251,  0.0182, -0.0086,  0.0021, -0.0107
1492035552.6179668903,1492035552.6204218864, -0.1887,  0.0251,  0.0182, -0.0033,  0.0040, -0.0124
1492035552.6207900047,1492035552.6230840683, -0.1887,  0.0251,  0.0182, -0.0033,  0.0040, -0.0124
1492035552.6234540939,1492035552.6257550716, -0.1887,  0.0251,  0.0182, -0.0033,  0.0040, -0.0124
1492035552.6262240410,1492035552.6285359859, -0.1887,  0.0251,  0.0182,  0.0045,  0.0077, -0.0120
1492035552.6289069653,1492035552.6312839985, -0.1887,  0.0251,  0.0182,  0.0038,  0.0077, -0.0120
1492035552.6316618919,1492035552.6340889931, -0.1864,  0.0157,  0.0221,  0.0038,  0.0077, -0.0120
1492035552.6344659328,1492035552.6368880272, -0.1864,  0.0157,  0.0221,  0.0038,  0.0077, -0.0120
1492035552.6372659206,1492035552.6396880150, -0.1864,  0.0157,  0.0221,  0.0103,  0.0113, -0.0125
1492035552.6400721073,1492035552.6424939632, -0.1864,  0.0157,  0.0221,  0.0103,  0.0113, -0.0125
1492035552.6428689957,1492035552.6452939510, -0.1864,  0.0157,  0.0221,  0.0103,  0.0113, -0.0125
1492035552.6456689835,1492035552.6480898857, -0.1864,  0.0157,  0.0221,  0.0103,  0.0113, -0.0125
1492035552.6484649181,1492035552.6508979797, -0.1864,  0.0157,  0.0221,  0.0154,  0.0138, -0.0109
1492035552.6512749195,1492035552.6537001133, -0.1864,  0.0176,  0.0239,  0.0154,  0.0138, -0.0109
1492035552.6541869640,1492035552.6566109657, -0.1864,  0.0176,  0.0239,  0.0154,  0.0138, -0.0109
1492035552.6569879055,1492035552.6594069004, -0.1864,  0.0176,  0.0239,  0.0154,  0.0159, -0.0085
1492035552.6597840786,1492035552.6621489525, -0.1864,  0.0176,  0.0239,  0.0156,  0.0159, -0.0085
1492035552.6625180244,1492035552.6648221016, -0.1864,  0.0176,  0.0239,  0.0156,  0.0159, -0.0085
1492035552.6651909351,1492035552.6674931049, -0.1864,  0.0176,  0.0239,  0.0156,  0.0159, -0.0085
1492035552.6678628922,1492035552.6702220440, -0.1864,  0.0176,  0.0239,  0.0149,  0.0194, -0.0067
1492035552.6705930233,1492035552.6728899479, -0.1879,  0.0208,  0.0208,  0.0149,  0.0194, -0.0067
1492035552.6732609272,1492035552.6755540371, -0.1879,  0.0208,  0.0208,  0.0149,  0.0194, -0.0067
1492035552.6759231091,1492035552.6782250404, -0.1879,  0.0208,  0.0208,  0.0149,  0.0194, -0.0067
1492035552.6785929203,1492035552.6809730530, -0.1879,  0.0208,  0.0208,  0.0143,  0.0217, -0.0042
1492035552.6813418865,1492035552.6836431026, -0.1879,  0.0208,  0.0208,  0.0143,  0.0217, -0.0042
1492035552.6840128899,1492035552.6863090992, -0.1879,  0.0208,  0.0208,  0.0143,  0.0217, -0.0042
1492035552.6866810322,1492035552.6889770031, -0.1879,  0.0208,  0.0208,  0.0143,  0.0217, -0.0042
1492035552.6893448830,1492035552.6925580502, -0.1848,  0.0151,  0.0275,  0.0134,  0.0225, -0.0032
1492035552.6929481030,1492035552.6962840557, -0.1848,  0.0151,  0.0275,  0.0134,  0.0225, -0.0032
1492035552.6966691017,1492035552.6998529434, -0.1848,  0.0151,  0.0275,  0.0134,  0.0225, -0.0032
1492035552.7002420425,1492035552.7032039165, -0.1848,  0.0151,  0.0275,  0.0111,  0.0231, -0.0033
1492035552.7035911083,1492035552.7060029507, -0.1848,  0.0151,  0.0275,  0.0111,  0.0231, -0.0033
1492035552.7063798904,1492035552.7087929249, -0.1848,  0.0151,  0.0275,  0.0111,  0.0231, -0.0033
1492035552.7091679573,1492035552.7116360664, -0.1842,  0.0252,  0.0214,  0.0112,  0.0240, -0.0036
1492035552.7120120525,1492035552.7144260406, -0.1842,  0.0252,  0.0214,  0.0112,  0.0240, -0.0036
1492035552.7148029804,1492035552.7172150612, -0.1842,  0.0252,  0.0214,  0.0112,  0.0240, -0.0036
1492035552.7175900936,1492035552.7200379372, -0.1842,  0.0252,  0.0214,  0.0112,  0.0240, -0.0036
1492035552.7204160690,1492035552.7228319645, -0.1842,  0.0252,  0.0214,  0.0123,  0.0257, -0.0058
1492035552.7232089043,1492035552.7256190777, -0.1842,  0.0252,  0.0214,  0.0123,  0.0257, -0.0058
1492035552.7259950638,1492035552.7284059525, -0.1842,  0.0252,  0.0214,  0.0123,  0.0257, -0.0058
1492035552.7287819386,1492035552.7312328815, -0.1842,  0.0232,  0.0213,  0.0123,  0.0257, -0.0067
1492035552.7316079140,1492035552.7340199947, -0.1842,  0.0232,  0.0213,  0.0147,  0.0267, -0.0067
1492035552.7343959808,1492035552.7368080616, -0.1842,  0.0232,  0.0213,  0.0147,  0.0267, -0.0067
1492035552.7371840477,1492035552.7396020889, -0.1842,  0.0232,  0.0213,  0.0147,  0.0267, -0.0067
1492035552.7400159836,1492035552.7424449921, -0.1842,  0.0232,  0.0213,  0.0186,  0.0277, -0.0076
1492035552.7428228855,1492035552.7452440262, -0.1842,  0.0232,  0.0213,  0.0186,  0.0277, -0.0076
1492035552.7456231117,1492035552.7480399609, -0.1842,  0.0232,  0.0213,  0.0186,  0.0277, -0.0076
1492035552.7484159470,1492035552.7508549690, -0.1842,  0.0190,  0.0254,  0.0186,  0.0277, -0.0076
1492035552.7512350082,1492035552.7536599636, -0.1846,  0.0190,  0.0254,  0.0238,  0.0303, -0.0092
1492035552.7540390491,1492035552.7564609051, -0.1846,  0.0190,  0.0254,  0.0238,  0.0303, -0.0092
1492035552.7568380833,1492035552.7592580318, -0.1846,  0.0190,  0.0254,  0.0238,  0.0303, -0.0092
1492035552.7596349716,1492035552.7620658875, -0.1846,  0.0190,  0.0254,  0.0238,  0.0381, -0.0085
1492035552.7624430656,1492035552.7648699284, -0.1846,  0.0190,  0.0254,  0.0258,  0.0326, -0.0085
1492035552.7652480602,1492035552.7676680088, -0.1846,  0.0190,  0.0254,  0.0258,  0.0326, -0.0085
1492035552.7680449486,1492035552.7704799175, -0.1846,  0.0190,  0.0209,  0.0258,  0.0326, -0.0085
1492035552.7708580494,1492035552.7732810974, -0.1856,  0.0188,  0.0209,  0.0266,  0.0361, -0.0070
1492035552.7737760544,1492035552.7762000561, -0.1856,  0.0188,  0.0209,  0.0266,  0.0361, -0.0070
1492035552.7765769958,1492035552.7790040970, -0.1856,  0.0188,  0.0209,  0.0266,  0.0361, -0.0070
1492035552.7793810368,1492035552.7817940712, -0.1856,  0.0188,  0.0209,  0.0266,  0.0361, -0.0070
1492035552.7821640968,1492035552.7844669819, -0.1856,  0.0188,  0.0209,  0.0291,  0.0369, -0.0061
1492035552.7848379612,1492035552.7871370316, -0.1856,  0.0188,  0.0209,  0.0291,  0.0369, -0.0061
1492035552.7875049114,1492035552.7898049355, -0.1856,  0.0188,  0.0287,  0.0291,  0.0369, -0.0061
1492035552.7901730537,1492035552.7924718857, -0.1828,  0.0059,  0.0270,  0.0291,  0.0369, -0.0061
1492035552.7928431034,1492035552.7951390743, -0.1828,  0.0059,  0.0270,  0.0266,  0.0417, -0.0029
1492035552.7955091000,1492035552.7978069782, -0.1828,  0.0059,  0.0270,  0.0266,  0.0417, -0.0029
1492035552.7981770039,1492035552.8005139828, -0.1828,  0.0059,  0.0270,  0.0266,  0.0417, -0.0029
1492035552.8008921146,1492035552.8033230305, -0.1828,  0.0059,  0.0270,  0.0266,  0.0417, -0.0018
1492035552.8037021160,1492035552.8061320782, -0.1828,  0.0059,  0.0270,  0.0253,  0.0450, -0.0018
1492035552.8065090179,1492035552.8089311123, -0.1828,  0.0059,  0.0270,  0.0253,  0.0450, -0.0018
1492035552.8093080521,1492035552.8117470741, -0.1863,  0.0190,  0.0125,  0.0253,  0.0450, -0.0018
1492035552.8121249676,1492035552.8145539761, -0.1863,  0.0190,  0.0125,  0.0295,  0.0462,  0.0005
1492035552.8149299622,1492035552.8173539639, -0.1863,  0.0190,  0.0125,  0.0295,  0.0462,  0.0005
1492035552.8177289963,1492035552.8201549053, -0.1863,  0.0190,  0.0125,  0.0295,  0.0462,  0.0005
1492035552.8205320835,1492035552.8229520321, -0.1863,  0.0190,  0.0125,  0.0295,  0.0462,  0.0005
1492035552.8233299255,1492035552.8257548809, -0.1863,  0.0190,  0.0125,  0.0293,  0.0446, -0.0002
1492035552.8261299133,1492035552.8285551071, -0.1863,  0.0190,  0.0125,  0.0293,  0.0446, -0.0002
1492035552.8289310932,1492035552.8313570023, -0.1880,  0.0261,  0.0127,  0.0293,  0.0446, -0.0002
1492035552.8317339420,1492035552.8341560364, -0.1880,  0.0261,  0.0127,  0.0293,  0.0446,  0.0015
1492035552.8345329762,1492035552.8369629383, -0.1880,  0.0261,  0.0127,  0.0246,  0.0451,  0.0015
1492035552.8373389244,1492035552.8397650719, -0.1880,  0.0261,  0.0127,  0.0246,  0.0451,  0.0015
1492035552.8401510715,1492035552.8424489498, -0.1880,  0.0261,  0.0127,  0.0246,  0.0451,  0.0015
1492035552.8428208828,1492035552.8451240063, -0.1880,  0.0261,  0.0127,  0.0263,  0.0486,  0.0032
1492035552.8454930782,1492035552.8477940559, -0.1880,  0.0261,  0.0127,  0.0263,  0.0486,  0.0032
1492035552.8481619358,1492035552.8505079746, -0.1845,  0.0259,  0.0224,  0.0263,  0.0486,  0.0032
1492035552.8508861065,1492035552.8533151150, -0.1845,  0.0259,  0.0224,  0.0263,  0.0486,  0.0032
1492035552.8536930084,1492035552.8561120033, -0.1845,  0.0259,  0.0224,  0.0238,  0.0518,  0.0032
1492035552.8564860821,1492035552.8589119911, -0.1845,  0.0259,  0.0224,  0.0238,  0.0518,  0.0032
1492035552.8592870235,1492035552.8617219925, -0.1845,  0.0259,  0.0224,  0.0238,  0.0518,  0.0032
1492035552.8620989323,1492035552.8645250797, -0.1845,  0.0259,  0.0224,  0.0238,  0.0518,  0.0032
1492035552.8649020195,1492035552.8673219681, -0.1845,  0.0259,  0.0224,  0.0220,  0.0526,  0.0036
1492035552.8676979542,1492035552.8701341152, -0.1856,  0.0211,  0.0179,  0.0220,  0.0526,  0.0036
1492035552.8705101013,1492035552.8729300499, -0.1856,  0.0211,  0.0179,  0.0220,  0.0526,  0.0036
1492035552.8733079433,1492035552.8757340908, -0.1856,  0.0211,  0.0179,  0.0247,  0.0526,  0.0024
1492035552.8761088848,1492035552.8785390854, -0.1856,  0.0211,  0.0179,  0.0247,  0.0526,  0.0024
1492035552.8789150715,1492035552.8813450336, -0.1856,  0.0211,  0.0179,  0.0247,  0.0526,  0.0024
1492035552.8817210197,1492035552.8841459751, -0.1856,  0.0211,  0.0179,  0.0247,  0.0526,  0.0024
1492035552.8845219612,1492035552.8869450092, -0.1856,  0.0211,  0.0179,  0.0246,  0.0542,  0.0067
1492035552.8873219490,1492035552.8897459507, -0.1934,  0.0294,  0.0200,  0.0246,  0.0542,  0.0067
1492035552.8902390003,1492035552.8925390244, -0.1930,  0.0294,  0.0200,  0.0246,  0.0542,  0.0067
1492035552.8929090500,1492035552.8952109814, -0.1930,  0.0294,  0.0200,  0.0246,  0.0542,  0.0067
1492035552.8955800533,1492035552.8978810310, -0.1930,  0.0294,  0.0200,  0.0332,  0.0597,  0.0138
1492035552.8982510567,1492035552.9006600380, -0.1930,  0.0294,  0.0200,  0.0332,  0.0597,  0.0138
1492035552.9010369778,1492035552.9034650326, -0.1930,  0.0294,  0.0200,  0.0332,  0.0597,  0.0138
1492035552.9038419724,1492035552.9062700272, -0.1930,  0.0294,  0.0200,  0.0332,  0.0669,  0.0177
1492035552.9066469669,1492035552.9090719223, -0.1930,  0.0216,  0.0183,  0.0364,  0.0669,  0.0177
1492035552.9094469547,1492035552.9118781090, -0.1891,  0.0216,  0.0183,  0.0364,  0.0669,  0.0177
1492035552.9122550488,1492035552.9146809578, -0.1891,  0.0216,  0.0183,  0.0364,  0.0669,  0.0177
1492035552.9150569439,1492035552.9174830914, -0.1891,  0.0216,  0.0183,  0.0364,  0.0728,  0.0259
1492035552.9178600311,1492035552.9202849865, -0.1891,  0.0216,  0.0183,  0.0364,  0.0728,  0.0259
1492035552.9206531048,1492035552.9229540825, -0.1891,  0.0216,  0.0183,  0.0364,  0.0728,  0.0259
1492035552.9233229160,1492035552.9256219864, -0.1891,  0.0216,  0.0183,  0.0364,  0.0728,  0.0259
1492035552.9259901047,1492035552.9282910824, -0.1891,  0.0216,  0.0183,  0.0441,  0.0825,  0.0339
1492035552.9286599159,1492035552.9310190678, -0.1958,  0.0210,  0.0243,  0.0441,  0.0825,  0.0339
1492035552.9313900471,1492035552.9336900711, -0.1958,  0.0210,  0.0243,  0.0441,  0.0825,  0.0339
1492035552.9340589046,1492035552.9363570213, -0.1958,  0.0210,  0.0243,  0.0441,  0.0825,  0.0339
1492035552.9367270470,1492035552.9390280247, -0.1958,  0.0210,  0.0243,  0.0492,  0.0906,  0.0430
1492035552.9393970966,1492035552.9418449402, -0.1958,  0.0210,  0.0243,  0.0492,  0.0906,  0.0430
1492035552.9422199726,1492035552.9446499348, -0.1958,  0.0210,  0.0243,  0.0492,  0.0906,  0.0430
1492035552.9450280666,1492035552.9474530220, -0.1958,  0.0210,  0.0243,  0.0492,  0.1002,  0.0516
1492035552.9478309155,1492035552.9502720833, -0.1975,  0.0188,  0.0212,  0.0494,  0.1002,  0.0516
1492035552.9506480694,1492035552.9530730247, -0.1975,  0.0188,  0.0212,  0.0494,  0.1002,  0.0516
1492035552.9534499645,1492035552.9558761120, -0.1975,  0.0188,  0.0212,  0.0494,  0.1002,  0.0516
1492035552.9562520981,1492035552.9586720467, -0.1975,  0.0188,  0.0212,  0.0483,  0.1078,  0.0623
1492035552.9590489864,1492035552.9614861012, -0.1975,  0.0188,  0.0212,  0.0483,  0.1078,  0.0623
1492035552.9618620872,1492035552.9642870426, -0.1975,  0.0188,  0.0212,  0.0483,  0.1078,  0.0623
1492035552.9646639824,1492035552.9670910835, -0.1975,  0.0188,  0.0212,  0.0483,  0.1078,  0.0623
1492035552.9674670696,1492035552.9698920250, -0.2097,  0.0159,  0.0246,  0.0511,  0.1180,  0.0790
1492035552.9702599049,1492035552.9725620747, -0.2097,  0.0159,  0.0246,  0.0511,  0.1180,  0.0790
1492035552.9729321003,1492035552.9752359390, -0.2097,  0.0159,  0.0246,  0.0511,  0.1180,  0.0790
1492035552.9756040573,1492035552.9779028893, -0.2097,  0.0159,  0.0246,  0.0511,  0.1180,  0.0986
1492035552.9782729149,1492035552.9806900024, -0.2097,  0.0159,  0.0246,  0.0611,  0.1303,  0.0986
1492035552.9810640812,1492035552.9834580421, -0.2097,  0.0159,  0.0246,  0.0611,  0.1303,  0.0986
1492035552.9838318825,1492035552.9862279892, -0.2097,  0.0159,  0.0246,  0.0611,  0.1303,  0.0986
1492035552.9866011143,1492035552.9889891148, -0.2271,  0.0042,  0.0419,  0.0696,  0.1487,  0.1207
1492035552.9893660545,1492035552.9918360710, -0.2271,  0.0042,  0.0419,  0.0696,  0.1487,  0.1207
1492035552.9922130108,1492035552.9946401119, -0.2271,  0.0042,  0.0419,  0.0696,  0.1487,  0.1207
1492035552.9950149059,1492035552.9974350929, -0.2271,  0.0042,  0.0419,  0.0696,  0.1487,  0.1207
1492035552.9978129864,1492035553.0002501011, -0.2271,  0.0042,  0.0419,  0.0851,  0.1704,  0.1423
1492035553.0006270409,1492035553.0030529499, -0.2271,  0.0042,  0.0419,  0.0851,  0.1704,  0.1423
1492035553.0035300255,1492035553.0059559345, -0.2271,  0.0042,  0.0419,  0.0851,  0.1704,  0.1423
1492035553.0063340664,1492035553.0087599754, -0.2584,  0.0280,  0.0263,  0.0851,  0.1704,  0.1716
1492035553.0091350079,1492035553.0115659237, -0.2599,  0.0280,  0.0263,  0.1062,  0.1955,  0.1716
1492035553.0119419098,1492035553.0143659115, -0.2599,  0.0280,  0.0263,  0.1062,  0.1955,  0.1716
1492035553.0147409439,1492035553.0171658993, -0.2599,  0.0280,  0.0263,  0.1062,  0.1955,  0.1716
1492035553.0175449848,1492035553.0199689865, -0.2599,  0.0280,  0.0263,  0.1241,  0.2029,  0.2008
1492035553.0203819275,1492035553.0226869583, -0.2599,  0.0280,  0.0263,  0.1241,  0.2029,  0.2008
1492035553.0230538845,1492035553.0253539085, -0.2599,  0.0280,  0.0263,  0.1241,  0.2029,  0.2008
1492035553.0257210732,1492035553.0280189514, -0.2599,  0.0436,  0.0719,  0.1241,  0.2029,  0.2008
1492035553.0283899307,1492035553.0307369232, -0.3208,  0.0407,  0.0719,  0.1266,  0.2191,  0.2257
1492035553.0311150551,1492035553.0335440636, -0.3208,  0.0407,  0.0719,  0.1266,  0.2191,  0.2257
1492035553.0339179039,1492035553.0363430977, -0.3208,  0.0407,  0.0719,  0.1266,  0.2191,  0.2257
1492035553.0367178917,1492035553.0391359329, -0.3208,  0.0407,  0.0719,  0.1266,  0.2191,  0.2257
1492035553.0395119190,1492035553.0419490337, -0.3208,  0.0407,  0.0719,  0.1308,  0.2495,  0.2364
1492035553.0423290730,1492035553.0447499752, -0.3208,  0.0407,  0.0719,  0.1308,  0.2495,  0.2364
1492035553.0451259613,1492035553.0475430489, -0.3208,  0.0407,  0.0942,  0.1308,  0.2495,  0.2364
1492035553.0479190350,1492035553.0503430367, -0.4671,  0.0659,  0.0942,  0.1308,  0.2748,  0.2694
1492035553.0507199764,1492035553.0531470776, -0.4671,  0.0659,  0.0942,  0.1343,  0.2748,  0.2694
1492035553.0535230637,1492035553.0559470654, -0.4671,  0.0659,  0.0942,  0.1343,  0.2748,  0.2694
1492035553.0563209057,1492035553.0587420464, -0.4671,  0.0659,  0.0942,  0.1343,  0.2748,  0.2694
1492035553.0591189861,1492035553.0615580082, -0.4671,  0.0659,  0.0942,  0.1152,  0.3210,  0.3318
1492035553.0619370937,1492035553.0643620491, -0.4671,  0.0659,  0.0942,  0.1152,  0.3210,  0.3318
1492035553.0647389889,1492035553.0671598911, -0.4671,  0.0659,  0.2192,  0.1152,  0.3210,  0.3318
1492035553.0675370693,1492035553.0699570179, -0.5876, -0.2002,  0.2247,  0.1152,  0.3210,  0.3318
1492035553.0703759193,1492035553.0726718903, -0.5876, -0.2002,  0.2247,  0.0553,  0.3586,  0.3778
1492035553.0730419159,1492035553.0753359795, -0.5876, -0.2002,  0.2247,  0.0553,  0.3586,  0.3778
1492035553.0757029057,1492035553.0780010223, -0.5876, -0.2002,  0.2247,  0.0553,  0.3586,  0.3778
1492035553.0783700943,1492035553.0807139874, -0.5876, -0.2002,  0.2247,  0.0553,  0.3586,  0.4170
1492035553.0810918808,1492035553.0835149288, -0.5876, -0.2002,  0.2247, -0.0034,  0.4050,  0.4170
1492035553.0838921070,1492035553.0863170624, -0.5876, -0.2002,  0.2247, -0.0034,  0.4050,  0.4170
1492035553.0866930485,1492035553.0891170502, -0.6088, -0.0835,  0.0401, -0.0034,  0.4050,  0.4170
1492035553.0894949436,1492035553.0919280052, -0.6088, -0.0835,  0.0401, -0.0746,  0.4644,  0.4559
1492035553.0923039913,1492035553.0947310925, -0.6088, -0.0835,  0.0401, -0.0746,  0.4644,  0.4559
1492035553.0951080322,1492035553.0975298882, -0.6088, -0.0835,  0.0401, -0.0746,  0.4644,  0.4559
1492035553.0979070663,1492035553.1003379822, -0.6088, -0.0835,  0.0401, -0.0746,  0.4644,  0.4559
1492035553.1007149220,1492035553.1031389236, -0.6088, -0.0835,  0.0401, -0.1870,  0.5064,  0.4656
1492035553.1035161018,1492035553.1059470177, -0.6088, -0.0835,  0.0401, -0.1870,  0.5064,  0.4656
1492035553.1063239574,1492035553.1087460518, -0.5696, -0.1510, -0.0125, -0.1870,  0.5064,  0.4656
1492035553.1091239452,1492035553.1115529537, -0.5696, -0.1510, -0.0125, -0.1870,  0.5064,  0.4547
1492035553.1119298935,1492035553.1143550873, -0.5696, -0.1510, -0.0125, -0.3275,  0.5590,  0.4547
1492035553.1147320271,1492035553.1171538830, -0.5696, -0.1510, -0.0125, -0.3275,  0.5590,  0.4547
1492035553.1175301075,1492035553.1199510098, -0.5696, -0.1510, -0.0125, -0.3275,  0.5590,  0.4547
1492035553.1204869747,1492035553.1227910519, -0.5696, -0.1510, -0.0125, -0.5127,  0.5844,  0.4767
1492035553.1231598854,1492035553.1254630089, -0.5696, -0.1510, -0.0125, -0.5127,  0.5844,  0.4767
1492035553.1258320808,1492035553.1281349659, -0.5035,  0.1100,  0.0313, -0.5127,  0.5844,  0.4767
1492035553.1285059452,1492035553.1308710575, -0.5035,  0.1100,  0.0313, -0.5127,  0.5844,  0.4767
1492035553.1312499046,1492035553.1336760521, -0.5035,  0.1100,  0.0313, -0.6374,  0.4753,  0.5137
1492035553.1340520382,1492035553.1364729404, -0.5035,  0.1100,  0.0313, -0.6374,  0.4753,  0.5137
1492035553.1368489265,1492035553.1392738819, -0.5035,  0.1100,  0.0313, -0.6374,  0.4753,  0.5137
1492035553.1396510601,1492035553.1420860291, -0.5035,  0.1100,  0.0313, -0.6374,  0.4753,  0.5137
1492035553.1424639225,1492035553.1448879242, -0.5035,  0.1100,  0.0313, -0.5208,  0.4244,  0.4958
1492035553.1452629566,1492035553.1476891041, -0.4090, -0.0251,  0.2154, -0.5208,  0.4244,  0.4958
1492035553.1480700970,1492035553.1505110264, -0.4090, -0.0251,  0.2154, -0.5208,  0.4244,  0.4958
1492035553.1508879662,1492035553.1533141136, -0.4090, -0.0251,  0.2154, -0.5208,  0.3949,  0.4742
1492035553.1536900997,1492035553.1561129093, -0.4090, -0.0251,  0.2154, -0.3914,  0.3949,  0.4742
1492035553.1564888954,1492035553.1589140892, -0.4090, -0.0251,  0.2154, -0.3914,  0.3949,  0.4742
1492035553.1592910290,1492035553.1617269516, -0.4090, -0.0251,  0.2154, -0.3914,  0.3949,  0.4742
1492035553.1621038914,1492035553.1645290852, -0.4090, -0.0251,  0.2154, -0.3087,  0.3525,  0.4222
1492035553.1649050713,1492035553.1673250198, -0.1902, -0.0208,  0.1579, -0.3087,  0.3525,  0.4222
1492035553.1677029133,1492035553.1701378822, -0.1914, -0.0208,  0.1579, -0.3087,  0.3525,  0.4222
1492035553.1705069542,1492035553.1728069782, -0.1914, -0.0208,  0.1579, -0.3087,  0.3525,  0.4222
1492035553.1731739044,1492035553.1754670143, -0.1914, -0.0208,  0.1579, -0.2096,  0.3309,  0.3325
1492035553.1758348942,1492035553.1781399250, -0.1914, -0.0208,  0.1579, -0.2096,  0.3309,  0.3325
1492035553.1785080433,1492035553.1808400154, -0.1914, -0.0208,  0.1579, -0.2096,  0.3309,  0.3325
1492035553.1812100410,1492035553.1835050583, -0.1914, -0.0208,  0.1579, -0.2096,  0.3309,  0.2153
1492035553.1838760376,1492035553.1861720085, -0.1914, -0.0208,  0.1053, -0.0811,  0.3061,  0.2154
1492035553.1865410805,1492035553.1888360977, -0.0564, -0.1425,  0.1053, -0.0811,  0.3061,  0.2154
1492035553.1892049313,1492035553.1916429996, -0.0564, -0.1425,  0.1053, -0.0811,  0.3061,  0.2154
1492035553.1920199394,1492035553.1944379807, -0.0564, -0.1425,  0.1053, -0.0811,  0.2648,  0.0930
1492035553.1948170662,1492035553.1972401142, -0.0564, -0.1425,  0.1053, -0.0040,  0.2648,  0.0930
1492035553.1976170540,1492035553.2000501156, -0.0564, -0.1425,  0.1053, -0.0040,  0.2648,  0.0930
1492035553.2004280090,1492035553.2028520107, -0.0564, -0.1425,  0.1053, -0.0040,  0.2648,  0.0930
1492035553.2032299042,1492035553.2056550980, -0.0564, -0.1425,  0.1053,  0.0119,  0.2049, -0.0223
1492035553.2060339451,1492035553.2084560394,  0.0361, -0.1986,  0.0829,  0.0119,  0.2049, -0.0223
1492035553.2088339329,1492035553.2112700939,  0.0361, -0.1986,  0.0829,  0.0119,  0.2049, -0.0223
1492035553.2116460800,1492035553.2140688896,  0.0361, -0.1986,  0.0829,  0.0119,  0.2049, -0.0223
1492035553.2144470215,1492035553.2168729305,  0.0361, -0.1986,  0.0829,  0.0013,  0.1457, -0.1410
1492035553.2172489166,1492035553.2196719646,  0.0361, -0.1986,  0.0829,  0.0013,  0.1457, -0.1410
1492035553.2200589180,1492035553.2223579884,  0.0361, -0.1986,  0.0829,  0.0013,  0.1457, -0.1410
1492035553.2227289677,1492035553.2250289917,  0.0361, -0.1986,  0.0829,  0.0013,  0.0832, -0.2505
1492035553.2253999710,1492035553.2277009487,  0.0699, -0.2424,  0.0632, -0.0397,  0.0858, -0.2505
1492035553.2280700207,1492035553.2304370403,  0.0699, -0.2424,  0.0632, -0.0397,  0.0858, -0.2505
1492035553.2308120728,1492035553.2332389355,  0.0699, -0.2424,  0.0632, -0.0397,  0.0858, -0.2505
1492035553.2336170673,1492035553.2360379696,  0.0699, -0.2424,  0.0632, -0.1134,  0.0202, -0.3337
1492035553.2365241051,1492035553.2389459610,  0.0699, -0.2424,  0.0632, -0.1134,  0.0202, -0.3337
1492035553.2393229008,1492035553.2417519093,  0.0699, -0.2424,  0.0632, -0.1134,  0.0202, -0.3337
1492035553.2421300411,1492035553.2445559502,  0.0699, -0.2424,  0.0632, -0.1134,  0.0202, -0.3337
1492035553.2449309826,1492035553.2473530769,  0.0517, -0.2115,  0.0771, -0.1971, -0.0428, -0.4011
1492035553.2477309704,1492035553.2501590252,  0.0517, -0.2115,  0.0771, -0.1971, -0.0428, -0.4011
1492035553.2505359650,1492035553.2529630661,  0.0517, -0.2115,  0.0771, -0.1971, -0.0428, -0.4011
1492035553.2533409595,1492035553.2557649612,  0.0517, -0.2115,  0.0771, -0.1971, -0.0428, -0.4594
1492035553.2561419010,1492035553.2585670948,  0.0517, -0.2115,  0.0771, -0.2611, -0.0935, -0.4594
1492035553.2589418888,1492035553.2613689899,  0.0517, -0.2115,  0.0771, -0.2611, -0.0935, -0.4594
1492035553.2617459297,1492035553.2641689777,  0.0517, -0.2115,  0.0771, -0.2611, -0.0935, -0.4594
1492035553.2645440102,1492035553.2669649124, -0.0127, -0.1277,  0.1194, -0.2931, -0.1317, -0.5104
1492035553.2673420906,1492035553.2697699070, -0.0127, -0.1277,  0.1194, -0.2931, -0.1317, -0.5104
1492035553.2701549530,1492035553.2724549770, -0.0127, -0.1277,  0.1194, -0.2931, -0.1317, -0.5104
1492035553.2728250027,1492035553.2751269341, -0.0127, -0.1277,  0.1194, -0.2931, -0.1317, -0.5104
1492035553.2754960060,1492035553.2777950764, -0.0127, -0.1277,  0.1194, -0.2868, -0.1641, -0.5577
1492035553.2781629562,1492035553.2804989815, -0.0127, -0.1277,  0.1194, -0.2868, -0.1641, -0.5577
1492035553.2808771133,1492035553.2832980156, -0.0127, -0.1277,  0.1194, -0.2868, -0.1641, -0.5577
1492035553.2836749554,1492035553.2860989571, -0.0127, -0.0776,  0.1302, -0.2868, -0.1641, -0.5577
1492035553.2864758968,1492035553.2889020443, -0.0399, -0.0776,  0.1302, -0.2605, -0.1901, -0.5954
1492035553.2892770767,1492035553.2917199135, -0.0399, -0.0776,  0.1302, -0.2605, -0.1901, -0.5954
1492035553.2920980453,1492035553.2945210934, -0.0399, -0.0776,  0.1302, -0.2605, -0.1901, -0.5954
1492035553.2948949337,1492035553.2973210812, -0.0399, -0.0776,  0.1302, -0.2605, -0.2218, -0.6273
1492035553.2976961136,1492035553.3001360893, -0.0399, -0.0776,  0.1302, -0.2328, -0.2218, -0.6273
1492035553.3005061150,1492035553.3028080463, -0.0399, -0.0776,  0.1302, -0.2328, -0.2218, -0.6273
1492035553.3031790257,1492035553.3054749966, -0.0399, -0.0386,  0.1036, -0.2328, -0.2218, -0.6273
1492035553.3058431149,1492035553.3081390858, -0.0196, -0.0384,  0.1036, -0.1934, -0.2594, -0.6585
1492035553.3085069656,1492035553.3109040260, -0.0196, -0.0384,  0.1036, -0.1934, -0.2594, -0.6585
1492035553.3112800121,1492035553.3137059212, -0.0196, -0.0384,  0.1036, -0.1934, -0.2594, -0.6585
1492035553.3140840530,1492035553.3165020943, -0.0196, -0.0384,  0.1036, -0.1934, -0.2594, -0.6585
1492035553.3168780804,1492035553.3193039894, -0.0196, -0.0384,  0.1036, -0.1407, -0.2562, -0.6804
1492035553.3196790218,1492035553.3220078945, -0.0196, -0.0384,  0.1036, -0.1407, -0.2562, -0.6804
1492035553.3223769665,1492035553.3246760368, -0.0196, -0.0384,  0.1036, -0.1407, -0.2562, -0.6804
1492035553.3250451088,1492035553.3273439407, -0.0178,  0.0073,  0.0816, -0.1407, -0.2562, -0.6804
1492035553.3277170658,1492035553.3300631046, -0.0178,  0.0073,  0.0816, -0.0729, -0.2625, -0.7120
1492035553.3304409981,1492035553.3328630924, -0.0178,  0.0073,  0.0816, -0.0729, -0.2625, -0.7120
1492035553.3332400322,1492035553.3356659412, -0.0178,  0.0073,  0.0816, -0.0729, -0.2625, -0.7120
1492035553.3360419273,1492035553.3384630680, -0.0178,  0.0073,  0.0816, -0.0729, -0.2718, -0.7435
1492035553.3388419151,1492035553.3412759304, -0.0178,  0.0073,  0.0816,  0.0146, -0.2718, -0.7435
1492035553.3416531086,1492035553.3440759182, -0.0178,  0.0073,  0.0816,  0.0146, -0.2718, -0.7435
1492035553.3444519043,1492035553.3468780518, -0.0602,  0.0749,  0.0561,  0.0146, -0.2718, -0.7435
1492035553.3472568989,1492035553.3496799469, -0.0602,  0.0749,  0.0561,  0.0822, -0.2896, -0.7683
1492035553.3500640392,1492035553.3524949551, -0.0602,  0.0749,  0.0561,  0.0822, -0.2896, -0.7683
1492035553.3529760838,1492035553.3554000854, -0.0602,  0.0749,  0.0561,  0.0822, -0.2896, -0.7683
1492035553.3557770252,1492035553.3581960201, -0.0602,  0.0749,  0.0561,  0.0822, -0.2896, -0.7683
1492035553.3585729599,1492035553.3610370159, -0.0602,  0.0749,  0.0561,  0.1438, -0.3070, -0.7603
1492035553.3614130020,1492035553.3638360500, -0.0602,  0.0749,  0.0561,  0.1438, -0.3070, -0.7603
1492035553.3642129898,1492035553.3666369915, -0.1802,  0.2014, -0.0038,  0.1438, -0.3070, -0.7603
1492035553.3670148849,1492035553.3694410324, -0.1802,  0.2014, -0.0038,  0.1750, -0.3179, -0.7030
1492035553.3698179722,1492035553.3721399307, -0.1802,  0.2014, -0.0038,  0.1796, -0.3179, -0.7030
1492035553.3725090027,1492035553.3748099804, -0.1802,  0.2014, -0.0038,  0.1796, -0.3179, -0.7030
1492035553.3751800060,1492035553.3774809837, -0.1802,  0.2014, -0.0038,  0.1796, -0.3179, -0.7030
1492035553.3778500557,1492035553.3801620007, -0.1802,  0.2014, -0.0038,  0.1769, -0.3291, -0.6234
1492035553.3805398941,1492035553.3829679489, -0.1802,  0.2014, -0.0038,  0.1769, -0.3291, -0.6234
1492035553.3833439350,1492035553.3857688904, -0.3272,  0.4392, -0.1012,  0.1769, -0.3291, -0.6234
1492035553.3861470222,1492035553.3885679245, -0.3272,  0.4392, -0.1012,  0.1769, -0.3291, -0.6234
1492035553.3889429569,1492035553.3913700581, -0.3272,  0.4392, -0.1012,  0.1913, -0.3013, -0.5578
1492035553.3917479515,1492035553.3941719532, -0.3272,  0.4392, -0.1012,  0.1913, -0.3013, -0.5578
1492035553.3945479393,1492035553.3969740868, -0.3272,  0.4392, -0.1012,  0.1913, -0.3013, -0.5578
1492035553.3973510265,1492035553.3997778893, -0.3272,  0.4392, -0.1012,  0.1913, -0.3013, -0.4561
1492035553.4001588821,1492035553.4025800228, -0.3272,  0.4392, -0.1012,  0.1775, -0.2640, -0.4561
1492035553.4029560089,1492035553.4053859711, -0.4717,  0.6421, -0.2817,  0.1775, -0.2640, -0.4561
1492035553.4057619572,1492035553.4081859589, -0.4717,  0.6421, -0.2817,  0.1775, -0.2640, -0.4561
1492035553.4085600376,1492035553.4110360146, -0.4717,  0.6421, -0.2817,  0.1368, -0.2330, -0.3077
1492035553.4114120007,1492035553.4138369560, -0.4717,  0.6421, -0.2817,  0.1368, -0.2330, -0.3077
1492035553.4142129421,1492035553.4166400433, -0.4717,  0.6421, -0.2817,  0.1368, -0.2330, -0.3077
1492035553.4170138836,1492035553.4194350243, -0.4717,  0.6421, -0.2817,  0.1368, -0.2330, -0.3077
1492035553.4198091030,1492035553.4221329689, -0.4717,  0.6421, -0.2817,  0.1005, -0.2070, -0.1782
1492035553.4225029945,1492035553.4248061180, -0.4248,  0.7826, -0.3096,  0.1005, -0.2070, -0.1782
1492035553.4251749516,1492035553.4274759293, -0.4219,  0.7826, -0.3096,  0.1005, -0.2070, -0.1782
1492035553.4278450012,1492035553.4301440716, -0.4219,  0.7826, -0.3096,  0.1005, -0.2070, -0.1782
1492035553.4305119514,1492035553.4328110218, -0.4219,  0.7826, -0.3096,  0.0935, -0.1452, -0.0559
1492035553.4331789017,1492035553.4354789257, -0.4219,  0.7826, -0.3096,  0.0935, -0.1452, -0.0559
1492035553.4358460903,1492035553.4381439686, -0.4219,  0.7826, -0.3096,  0.0935, -0.1452, -0.0559
1492035553.4385139942,1492035553.4408740997, -0.4219,  0.7826, -0.3096,  0.0935, -0.1452,  0.0696
1492035553.4412510395,1492035553.4436969757, -0.4219,  0.7826, -0.3096,  0.1211, -0.0460,  0.0696
1492035553.4440739155,1492035553.4465019703, -0.2845,  0.6420, -0.3156,  0.1211, -0.0460,  0.0696
1492035553.4468779564,1492035553.4493119717, -0.2845,  0.6420, -0.3156,  0.1211, -0.0460,  0.0696
1492035553.4496910572,1492035553.4521269798, -0.2845,  0.6420, -0.3156,  0.1685,  0.0377,  0.1508
1492035553.4525010586,1492035553.4549210072, -0.2845,  0.6420, -0.3156,  0.1685,  0.0377,  0.1508
1492035553.4552950859,1492035553.4577209949, -0.2845,  0.6420, -0.3156,  0.1685,  0.0377,  0.1508
1492035553.4580960274,1492035553.4605309963, -0.2845,  0.6420, -0.3156,  0.1685,  0.0377,  0.1508
1492035553.4609060287,1492035553.4633319378, -0.2845,  0.6420, -0.3156,  0.1912,  0.1101,  0.1911
1492035553.4637069702,1492035553.4661331177, -0.0581,  0.3150, -0.2797,  0.1912,  0.1101,  0.1911
1492035553.4665100574,1492035553.4689350128, -0.0581,  0.3150, -0.2797,  0.1912,  0.1101,  0.1911
1492035553.4694199562,1492035553.4717600346, -0.0581,  0.3150, -0.2797,  0.1912,  0.1101,  0.2242
1492035553.4721300602,1492035553.4744279385, -0.0581,  0.3150, -0.2797,  0.1351,  0.1090,  0.2242
1492035553.4747970104,1492035553.4770960808, -0.0581,  0.3150, -0.2797,  0.1351,  0.1090,  0.2242
1492035553.4774639606,1492035553.4797620773, -0.0581,  0.3150, -0.2797,  0.1351,  0.1090,  0.2242
1492035553.4801399708,1492035553.4825561047, -0.0581,  0.3150, -0.2797,  0.1351, -0.1505,  0.0918
1492035553.4829320908,1492035553.4853589535, -0.9638,  0.1280,  0.3631,  0.0352, -0.1505,  0.0918
1492035553.4857339859,1492035553.4881598949, -0.9638,  0.1280,  0.3631,  0.0352, -0.1505,  0.0918
1492035553.4885358810,1492035553.4909598827, -0.9638,  0.1280,  0.3631,  0.0352, -0.1505,  0.0918
1492035553.4913389683,1492035553.4937560558, -0.9638,  0.1280,  0.3631,  0.1401,  0.0046,  0.0626
1492035553.4941320419,1492035553.4965538979, -0.9638,  0.1280,  0.3631,  0.1401,  0.0046,  0.0626
1492035553.4969298840,1492035553.4993538857, -0.9638,  0.1280,  0.3631,  0.1401,  0.0046,  0.0626
1492035553.4997310638,1492035553.5021550655, -0.9638,  0.1280,  0.3631,  0.1401,  0.0046,  0.0626
1492035553.5025320053,1492035553.5049550533, -0.1648,  0.2370, -0.3641,  0.1766,  0.2333,  0.4926
1492035553.5053279400,1492035553.5077509880, -0.1648,  0.2370, -0.3641,  0.1766,  0.2333,  0.4926
1492035553.5081241131,1492035553.5105249882, -0.1648,  0.2370, -0.3641,  0.1766,  0.2333,  0.4926
1492035553.5108950138,1492035553.5131940842, -0.1648,  0.2370, -0.3641,  0.1766,  0.3193,  0.7890
1492035553.5135619640,1492035553.5158650875, -0.1648,  0.2370, -0.3641, -0.1237,  0.3153,  0.7890
1492035553.5162329674,1492035553.5185329914, -0.1648,  0.2370, -0.3641, -0.1237,  0.3153,  0.7890
1492035553.5189011097,1492035553.5212728977, -0.1648,  0.2370, -0.3641, -0.1237,  0.3153,  0.7890
1492035553.5216479301,1492035553.5240581036,  0.1182,  0.2525, -0.0692, -0.0167,  0.1032,  0.6406
1492035553.5244350433,1492035553.5268459320,  0.1182,  0.2525, -0.0692, -0.0167,  0.1032,  0.6406
1492035553.5272240639,1492035553.5296339989,  0.1182,  0.2525, -0.0692, -0.0167,  0.1032,  0.6406
1492035553.5300199986,1492035553.5324339867,  0.1182,  0.2525, -0.0692, -0.0167,  0.1032,  0.6406
1492035553.5328121185,1492035553.5352239609,  0.1182,  0.2525, -0.0692,  0.2132,  0.0796,  0.2131
1492035553.5355999470,1492035553.5380129814,  0.1182,  0.2525, -0.0692,  0.2132,  0.0796,  0.2131
1492035553.5383880138,1492035553.5408329964,  0.1182,  0.2525, -0.0692,  0.2132,  0.0796,  0.2131
1492035553.5412089825,1492035553.5436289310,  0.1182,  0.0436, -0.0075,  0.2132,  0.0796,  0.1740
1492035553.5440070629,1492035553.5464320183, -0.2102,  0.0436, -0.0075,  0.2463, -0.0443,  0.1747
1492035553.5468089581,1492035553.5492339134, -0.2102,  0.0436, -0.0075,  0.2463, -0.0443,  0.1747
1492035553.5496089458,1492035553.5520439148, -0.2102,  0.0436, -0.0075,  0.2463, -0.0443,  0.1747
1492035553.5524210930,1492035553.5548450947, -0.2102,  0.0436, -0.0075,  0.1815,  0.1436,  0.2397
1492035553.5552210808,1492035553.5576488972, -0.2102,  0.0436, -0.0075,  0.1815,  0.1436,  0.2397
1492035553.5580260754,1492035553.5604429245, -0.2102,  0.0436, -0.0075,  0.1815,  0.1436,  0.2397
1492035553.5608139038,1492035553.5631120205, -0.2102,  0.1094, -0.0347,  0.1815,  0.1436,  0.2397
1492035553.5634799004,1492035553.5657780170, -0.1986,  0.1094, -0.0347,  0.2014,  0.1434,  0.2355
1492035553.5661470890,1492035553.5684471130, -0.1986,  0.1094, -0.0347,  0.2014,  0.1434,  0.2355
1492035553.5688169003,1492035553.5711588860, -0.1986,  0.1094, -0.0347,  0.2014,  0.1434,  0.2355
1492035553.5715301037,1492035553.5738229752, -0.1986,  0.1094, -0.0347,  0.2014,  0.1434,  0.2355
1492035553.5741920471,1492035553.5764839649, -0.1986,  0.1094, -0.0347,  0.1941,  0.1310,  0.2136
1492035553.5768539906,1492035553.5791471004, -0.1986,  0.1094, -0.0347,  0.1941,  0.1310,  0.2136
1492035553.5795168877,1492035553.5819230080, -0.1986,  0.1094, -0.0347,  0.1941,  0.1310,  0.2136
1492035553.5824060440,1492035553.5848250389, -0.1628,  0.1255,  0.0027,  0.1941,  0.1310,  0.1980
1492035553.5852019787,1492035553.5876278877, -0.1628,  0.1255,  0.0027,  0.1728,  0.1306,  0.1961
1492035553.5880029202,1492035553.5904390812, -0.1628,  0.1255,  0.0027,  0.1728,  0.1306,  0.1961
1492035553.5908141136,1492035553.5932390690, -0.1628,  0.1255,  0.0027,  0.1728,  0.1306,  0.1961
1492035553.5936160088,1492035553.5960381031, -0.1628,  0.1255,  0.0027,  0.1567,  0.1204,  0.1673
1492035553.5964140892,1492035553.5988380909, -0.1628,  0.1255,  0.0027,  0.1567,  0.1204,  0.1673
1492035553.5992128849,1492035553.6016499996, -0.1628,  0.1255,  0.0027,  0.1567,  0.1204,  0.1673
1492035553.6020259857,1492035553.6044499874, -0.2265,  0.1334, -0.0607,  0.1567,  0.1204,  0.1673
1492035553.6048269272,1492035553.6072480679, -0.2265,  0.1334, -0.0607,  0.1551,  0.1219,  0.1367
1492035553.6076240540,1492035553.6100580692, -0.2265,  0.1334, -0.0607,  0.1551,  0.1219,  0.1367
1492035553.6104340553,1492035553.6128609180, -0.2265,  0.1334, -0.0607,  0.1551,  0.1219,  0.1367
1492035553.6132390499,1492035553.6156609058, -0.2265,  0.1334, -0.0607,  0.1551,  0.1219,  0.1055
1492035553.6160390377,1492035553.6184570789, -0.2265,  0.1334, -0.0607,  0.1385,  0.1306,  0.1091
1492035553.6188340187,1492035553.6212110519, -0.2265,  0.1334, -0.0607,  0.1385,  0.1306,  0.1091
1492035553.6215810776,1492035553.6238830090, -0.2701,  0.1337, -0.0077,  0.1385,  0.1306,  0.1091
1492035553.6242549419,1492035553.6265490055, -0.2701,  0.1337, -0.0077,  0.1385,  0.1367,  0.0658
1492035553.6269168854,1492035553.6292150021, -0.2701,  0.1337, -0.0077,  0.1436,  0.1367,  0.0658
1492035553.6295859814,1492035553.6320381165, -0.2701,  0.1337, -0.0077,  0.1436,  0.1367,  0.0658
1492035553.6324150562,1492035553.6348450184, -0.2701,  0.1337, -0.0077,  0.1436,  0.1367,  0.0658
1492035553.6352229118,1492035553.6376481056, -0.2701,  0.1337, -0.0077,  0.1797,  0.1572, -0.0005
1492035553.6380259991,1492035553.6404609680, -0.2701,  0.1337, -0.0077,  0.1797,  0.1572, -0.0005
1492035553.6408390999,1492035553.6432669163, -0.4703,  0.1538, -0.0142,  0.1797,  0.1572, -0.0005
1492035553.6436419487,1492035553.6460649967, -0.4703,  0.1538, -0.0142,  0.1797,  0.1572, -0.0005
1492035553.6464409828,1492035553.6488668919, -0.4703,  0.1538, -0.0142,  0.1510,  0.1300, -0.0874
1492035553.6492431164,1492035553.6521630287, -0.4703,  0.1538, -0.0142,  0.1510,  0.1300, -0.0874
1492035553.6525359154,1492035553.6548299789, -0.4703,  0.1538, -0.0142,  0.1510,  0.1300, -0.0874
1492035553.6551980972,1492035553.6574931145, -0.4703,  0.1538, -0.0142,  0.0650,  0.0839, -0.1669
1492035553.6578609943,1492035553.6603999138, -0.4703,  0.1538, -0.0142,  0.0688,  0.0839, -0.1669
1492035553.6607699394,1492035553.6630690098, -0.6745, -0.0331,  0.2292,  0.0688,  0.0839, -0.1669
1492035553.6634399891,1492035553.6657340527, -0.6745, -0.0331,  0.2292,  0.0688,  0.0839, -0.1669
1492035553.6661028862,1492035553.6683950424, -0.6745, -0.0331,  0.2292, -0.0592,  0.0729, -0.1230
1492035553.6687641144,1492035553.6711521149, -0.6745, -0.0331,  0.2292, -0.0592,  0.0729, -0.1230
1492035553.6715219021,1492035553.6738240719, -0.6745, -0.0331,  0.2292, -0.0592,  0.0729, -0.1230
1492035553.6741929054,1492035553.6764869690, -0.6745, -0.0331,  0.2292, -0.0592,  0.0729, -0.1230
1492035553.6768579483,1492035553.6791510582, -0.6745, -0.0331,  0.2292, -0.1161,  0.1200,  0.0604
1492035553.6795220375,1492035553.6818230152, -0.6745, -0.0331,  0.4139, -0.1161,  0.1200,  0.0604
1492035553.6821939945,1492035553.6844899654, -0.4484, -0.1827,  0.4139, -0.1161,  0.1200,  0.0604
1492035553.6848580837,1492035553.6871540546, -0.4484, -0.1827,  0.4139, -0.1161,  0.1200,  0.0604
1492035553.6875219345,1492035553.6898169518, -0.4484, -0.1827,  0.4139, -0.0320,  0.1204,  0.0478
1492035553.6901841164,1492035553.6924779415, -0.4484, -0.1827,  0.4139, -0.0320,  0.1204,  0.0478
1492035553.6928479671,1492035553.6951370239, -0.4484, -0.1827,  0.4139, -0.0320,  0.1204,  0.0478
1492035553.6955060959,1492035553.6977989674, -0.4484, -0.1827,  0.4139, -0.0320,  0.1204,  0.0478
1492035553.6982779503,1492035553.7006540298, -0.4484, -0.1827,  0.4139,  0.0888,  0.0717, -0.0033
1492035553.7010300159,1492035553.7034440041, -0.4796, -0.1871,  0.2628,  0.0888,  0.0717, -0.0033
1492035553.7038218975,1492035553.7062339783, -0.4796, -0.1871,  0.2628,  0.0888,  0.0717, -0.0033
1492035553.7066109180,1492035553.7090299129, -0.4796, -0.1871,  0.2628,  0.3778,  0.0038, -0.0368
1492035553.7094070911,1492035553.7118360996, -0.4796, -0.1871,  0.2628,  0.3779,  0.0038, -0.0368
1492035553.7122120857,1492035553.7146260738, -0.4796, -0.1871,  0.2628,  0.3779,  0.0038, -0.0368
1492035553.7150020599,1492035553.7174160480, -0.4796, -0.1871,  0.2628,  0.3779,  0.0038, -0.0368
1492035553.7177920341,1492035553.7202219963, -0.4796, -0.1871,  0.2628,  0.4385,  0.1537,  0.0745
1492035553.7205970287,1492035553.7230238914, -0.4152,  0.4523, -0.1498,  0.4385,  0.1537,  0.0745
1492035553.7234010696,1492035553.7258250713, -0.4152,  0.4523, -0.1498,  0.4385,  0.1537,  0.0745
1492035553.7262001038,1492035553.7286241055, -0.4152,  0.4523, -0.1498,  0.4385,  0.1537,  0.0745
1492035553.7290010452,1492035553.7314360142, -0.4152,  0.4523, -0.1498,  0.1601,  0.2732,  0.4341
1492035553.7318129539,1492035553.7342369556, -0.4152,  0.4523, -0.1498,  0.1601,  0.2732,  0.4341
1492035553.7346119881,1492035553.7370340824, -0.4152,  0.4523, -0.1498,  0.1601,  0.2732,  0.4341
1492035553.7374100685,1492035553.7398350239, -0.4152,  0.4523, -0.1498,  0.1601,  0.2150,  0.3674
1492035553.7402191162,1492035553.7426431179, -0.2504,  0.0587,  0.0921, -0.0153,  0.2150,  0.3674
1492035553.7430200577,1492035553.7454450130, -0.2504,  0.0587,  0.0921, -0.0153,  0.2150,  0.3674
1492035553.7458219528,1492035553.7482459545, -0.2504,  0.0587,  0.0921, -0.0153,  0.2150,  0.3674
1492035553.7486240864,1492035553.7510581017, -0.2504,  0.0587,  0.0921,  0.0432,  0.2320,  0.3287
1492035553.7514359951,1492035553.7538650036, -0.2504,  0.0587,  0.0921,  0.0432,  0.2320,  0.3287
1492035553.7542409897,1492035553.7566599846, -0.2504,  0.0587,  0.0921,  0.0432,  0.2320,  0.3287
1492035553.7570369244,1492035553.7594630718, -0.2504,  0.0587,  0.0921,  0.0432,  0.2320,  0.3287
1492035553.7598409653,1492035553.7621660233, -0.5270, -0.4123,  0.0704, -0.2757,  0.3587,  0.5321
1492035553.7625360489,1492035553.7648389339, -0.5270, -0.4123,  0.0704, -0.2757,  0.3587,  0.5321
1492035553.7652060986,1492035553.7675089836, -0.5270, -0.4123,  0.0704, -0.2757,  0.3587,  0.5321
1492035553.7678771019,1492035553.7702500820, -0.5270, -0.4123,  0.0704, -0.2757,  0.3587,  0.7462
1492035553.7706260681,1492035553.7730169296, -0.5270, -0.4123,  0.0704, -0.4417,  0.3316,  0.7462
1492035553.7733941078,1492035553.7759149075, -0.5270, -0.4123,  0.0704, -0.4417,  0.3316,  0.7462
1492035553.7763030529,1492035553.7786140442, -0.5270, -0.4123,  0.0704, -0.4417,  0.3316,  0.7462
1492035553.7789859772,1492035553.7814049721, -0.5270, -0.0382,  0.2296, -0.1973,  0.3250,  0.8252
1492035553.7817780972,1492035553.7840740681, -0.8922, -0.0382,  0.2296, -0.1973,  0.3250,  0.8252
1492035553.7844440937,1492035553.7867419720, -0.8922, -0.0382,  0.2296, -0.1973,  0.3250,  0.8252
1492035553.7871110439,1492035553.7894079685, -0.8922, -0.0382,  0.2296, -0.1973,  0.3250,  0.8252
1492035553.7897770405,1492035553.7921910286, -0.8922, -0.0382,  0.2296, -0.0703,  0.3937,  0.8345
1492035553.7925601006,1492035553.7954781055, -0.8922, -0.0382,  0.2296, -0.0703,  0.3937,  0.8345
1492035553.7958509922,1492035553.7981560230, -0.8922, -0.0382,  0.2296, -0.0703,  0.3937,  0.8345
1492035553.7985260487,1492035553.8008360863, -0.8922, -0.0851,  0.2716, -0.0703,  0.3937,  0.7408
1492035553.8012049198,1492035553.8035030365, -0.7538, -0.0855,  0.2716,  0.0936,  0.4080,  0.7396
1492035553.8038740158,1492035553.8061659336, -0.7538, -0.0855,  0.2716,  0.0936,  0.4080,  0.7396
1492035553.8065350056,1492035553.8088269234, -0.7538, -0.0855,  0.2716,  0.0936,  0.4080,  0.7396
1492035553.8091959953,1492035553.8115539551, -0.7538, -0.0855,  0.2716,  0.0936,  0.4236,  0.6222
1492035553.8119239807,1492035553.8142209053, -0.7538, -0.0855,  0.2716,  0.2861,  0.4265,  0.6222
1492035553.8147120476,1492035553.8170080185, -0.7538, -0.0855,  0.2716,  0.2861,  0.4265,  0.6222
1492035553.8173780441,1492035553.8196780682, -0.7538, -0.0855,  0.2716,  0.2861,  0.4265,  0.6222
1492035553.8200659752,1492035553.8223600388, -0.5172, -0.3892,  0.1545,  0.3113,  0.4583,  0.5472
1492035553.8227300644,1492035553.8250288963, -0.5172, -0.3892,  0.1545,  0.3113,  0.4583,  0.5472
1492035553.8253960609,1492035553.8276879787, -0.5172, -0.3892,  0.1545,  0.3113,  0.4583,  0.5472
1492035553.8280539513,1492035553.8304259777, -0.5172, -0.3892,  0.1545,  0.3113,  0.4583,  0.5472
1492035553.8308019638,1492035553.8332340717, -0.5172, -0.3892,  0.1545,  0.2668,  0.4641,  0.4826
1492035553.8336100578,1492035553.8360381126, -0.5172, -0.3892,  0.1545,  0.2668,  0.4641,  0.4826
1492035553.8364119530,1492035553.8388381004, -0.5172, -0.3892,  0.1545,  0.2668,  0.4641,  0.4826
1492035553.8392128944,1492035553.8416550159, -0.4561, -0.3653,  0.0208,  0.2668,  0.4641,  0.4826
1492035553.8420290947,1492035553.8444519043, -0.4561, -0.3653,  0.0208,  0.1827,  0.4333,  0.3849
1492035553.8448290825,1492035553.8472609520, -0.4561, -0.3653,  0.0208,  0.1827,  0.4333,  0.3849
1492035553.8476369381,1492035553.8500740528, -0.4561, -0.3653,  0.0208,  0.1827,  0.4333,  0.3849
1492035553.8504428864,1492035553.8527350426, -0.4561, -0.3653,  0.0208,  0.1827,  0.3708,  0.2847
1492035553.8531029224,1492035553.8554089069, -0.4561, -0.3653,  0.0208,  0.0048,  0.3744,  0.2847
1492035553.8557798862,1492035553.8580811024, -0.4561, -0.3653,  0.0208,  0.0048,  0.3744,  0.2847
1492035553.8584499359,1492035553.8608388901, -0.1905, -0.3472,  0.0946,  0.0048,  0.3744,  0.2847
1492035553.8612170219,1492035553.8636329174, -0.1906, -0.3472,  0.0946, -0.1804,  0.3023,  0.1959
1492035553.8640089035,1492035553.8664219379, -0.1906, -0.3472,  0.0946, -0.1804,  0.3023,  0.1959
1492035553.8667979240,1492035553.8692119122, -0.1906, -0.3472,  0.0946, -0.1804,  0.3023,  0.1959
1492035553.8695878983,1492035553.8720469475, -0.1906, -0.3472,  0.0946, -0.1804,  0.3023,  0.1959
1492035553.8724250793,1492035553.8748381138, -0.1906, -0.3472,  0.0946, -0.2696,  0.2050,  0.0976
1492035553.8752150536,1492035553.8776359558, -0.1906, -0.3472,  0.0946, -0.2696,  0.2050,  0.0976
1492035553.8780140877,1492035553.8804349899, -0.1906, -0.1747,  0.1214, -0.2696,  0.2050,  0.0976
1492035553.8808128834,1492035553.8832280636,  0.0181, -0.1747,  0.1214, -0.2696,  0.2050, -0.0196
1492035553.8836040497,1492035553.8860199451,  0.0181, -0.1747,  0.1214, -0.3065,  0.1340, -0.0215
1492035553.8863949776,1492035553.8888020515,  0.0181, -0.1747,  0.1214, -0.3065,  0.1340, -0.0215
1492035553.8891789913,1492035553.8916440010,  0.0181, -0.1747,  0.1214, -0.3065,  0.1340, -0.0215
1492035553.8920199871,1492035553.8944289684,  0.0181, -0.1747,  0.1214, -0.3327,  0.0984, -0.1670
1492035553.8948049545,1492035553.8972170353,  0.0181, -0.1747,  0.1214, -0.3327,  0.0984, -0.1670
1492035553.8975949287,1492035553.9000229836,  0.0181, -0.0497,  0.0961, -0.3327,  0.0984, -0.1670
1492035553.9003930092,1492035553.9027299881,  0.1580, -0.0539,  0.0961, -0.3327,  0.0984, -0.1670
1492035553.9031009674,1492035553.9054110050,  0.1580, -0.0539,  0.0961, -0.3517,  0.0937, -0.3190
1492035553.9057800770,1492035553.9080879688,  0.1580, -0.0539,  0.0961, -0.3517,  0.0937, -0.3190
1492035553.9084570408,1492035553.9108469486,  0.1580, -0.0539,  0.0961, -0.3517,  0.0937, -0.3190
1492035553.9112250805,1492035553.9136600494,  0.1580, -0.0539,  0.0961, -0.3517,  0.0937, -0.3190
1492035553.9140369892,1492035553.9164650440,  0.1580, -0.0539,  0.0961, -0.3788,  0.0731, -0.4328
1492035553.9168410301,1492035553.9192640781,  0.1580, -0.0539,  0.0649, -0.3788,  0.0731, -0.4328
1492035553.9196400642,1492035553.9220809937,  0.1794,  0.0258,  0.0684, -0.3788,  0.0731, -0.4328
1492035553.9224579334,1492035553.9248828888,  0.1794,  0.0258,  0.0684, -0.3788,  0.0731, -0.6177
1492035553.9252591133,1492035553.9276809692,  0.1794,  0.0258,  0.0684, -0.3926,  0.0767, -0.6177
1492035553.9280560017,1492035553.9304780960,  0.1794,  0.0258,  0.0684, -0.3926,  0.0767, -0.6177
1492035553.9309589863,1492035553.9332599640,  0.1794,  0.0258,  0.0684, -0.3926,  0.0767, -0.6177
1492035553.9336290359,1492035553.9359359741,  0.1794,  0.0258,  0.0684, -0.3427,  0.0003, -0.8769
1492035553.9363050461,1492035553.9386029243,  0.1794,  0.0258,  0.0684, -0.3427,  0.0003, -0.8769
1492035553.9389710426,1492035553.9413659573,  0.1608,  0.1827,  0.1661, -0.3427,  0.0003, -0.8769
1492035553.9417428970,1492035553.9441699982,  0.1608,  0.1827,  0.1661, -0.3427,  0.0003, -0.8769
1492035553.9445469379,1492035553.9469740391,  0.1608,  0.1827,  0.1661, -0.2534, -0.0388, -0.9953
1492035553.9473490715,1492035553.9497730732,  0.1608,  0.1827,  0.1661, -0.2534, -0.0388, -0.9953
1492035553.9501569271,1492035553.9524610043,  0.1608,  0.1827,  0.1661, -0.2534, -0.0388, -0.9953
1492035553.9528319836,1492035553.9551329613,  0.1608,  0.1827,  0.1661, -0.2534, -0.0388, -0.9875
1492035553.9555020332,1492035553.9578049183,  0.1608,  0.1827,  0.1661, -0.0789, -0.0567, -0.9921
1492035553.9581730366,1492035553.9605131149, -0.0831,  0.0759,  0.1049, -0.0789, -0.0567, -0.9921
1492035553.9608900547,1492035553.9633159637, -0.0831,  0.0759,  0.1049, -0.0789, -0.0567, -0.9921
1492035553.9636940956,1492035553.9661240578, -0.0831,  0.0759,  0.1049, -0.0789, -0.0963, -0.9993
1492035553.9665019512,1492035553.9689309597, -0.0831,  0.0759,  0.1049,  0.0796, -0.0963, -0.9993
1492035553.9693059921,1492035553.9717419147, -0.0831,  0.0759,  0.1049,  0.0796, -0.0963, -0.9993
1492035553.9721200466,1492035553.9745469093, -0.0831,  0.0759,  0.1049,  0.0796, -0.0963, -0.9993
1492035553.9749240875,1492035553.9773459435, -0.0831,  0.0759,  0.1049,  0.1346, -0.1077, -0.9999
1492035553.9777250290,1492035553.9801409245, -0.0615, -0.0003,  0.1250,  0.1346, -0.1077, -0.9999
1492035553.9805190563,1492035553.9829421043, -0.0615, -0.0003,  0.1250,  0.1346, -0.1077, -0.9999
1492035553.9833209515,1492035553.9857409000, -0.0615, -0.0003,  0.1250,  0.1346, -0.1077, -0.9999
1492035553.9861180782,1492035553.9885420799, -0.0615, -0.0003,  0.1250,  0.0555, -0.1343, -0.9866
1492035553.9889180660,1492035553.9913508892, -0.0615, -0.0003,  0.1250,  0.0555, -0.1343, -0.9866
1492035553.9917271137,1492035553.9941470623, -0.0615, -0.0003,  0.1250,  0.0555, -0.1343, -0.9866
1492035553.9945230484,1492035553.9969499111, -0.0615, -0.0003,  0.1250,  0.0555, -0.2003, -0.9650
1492035553.9973280430,1492035553.9997448921, -0.0727,  0.0064,  0.0492,  0.0016, -0.2003, -0.9650
1492035554.0001320839,1492035554.0024390221, -0.0727,  0.0064,  0.0492,  0.0016, -0.2003, -0.9650
1492035554.0028109550,1492035554.0051128864, -0.0727,  0.0064,  0.0492,  0.0016, -0.2003, -0.9650
1492035554.0054841042,1492035554.0077879429, -0.0727,  0.0064,  0.0492, -0.0285, -0.2564, -0.9385
1492035554.0081579685,1492035554.0104959011, -0.0727,  0.0064,  0.0492, -0.0285, -0.2564, -0.9385
1492035554.0108740330,1492035554.0132970810, -0.0727,  0.0064,  0.0492, -0.0285, -0.2564, -0.9385
1492035554.0136740208,1492035554.0160970688, -0.0727,  0.0064,  0.0492, -0.0285, -0.2564, -0.9385
1492035554.0164740086,1492035554.0189061165, -0.0727,  0.0377,  0.0765, -0.0553, -0.3032, -0.9029
1492035554.0192821026,1492035554.0217111111, -0.0999,  0.0334,  0.0765, -0.0553, -0.3032, -0.9029
1492035554.0220890045,1492035554.0245170593, -0.0999,  0.0334,  0.0765, -0.0553, -0.3032, -0.9029
1492035554.0248939991,1492035554.0273149014, -0.0999,  0.0334,  0.0765, -0.0553, -0.3032, -0.8738
1492035554.0276920795,1492035554.0301270485, -0.0999,  0.0334,  0.0765, -0.0761, -0.3436, -0.8738
1492035554.0305049419,1492035554.0329380035, -0.0999,  0.0334,  0.0765, -0.0761, -0.3436, -0.8738
1492035554.0333158970,1492035554.0357429981, -0.0999,  0.0334,  0.0765, -0.0761, -0.3436, -0.8738
1492035554.0361180305,1492035554.0385398865, -0.0999,  0.0334,  0.0868, -0.0835, -0.3925, -0.8650
1492035554.0389161110,1492035554.0413610935, -0.1205,  0.1293,  0.0868, -0.0835, -0.3925, -0.8650
1492035554.0417399406,1492035554.0441648960, -0.1205,  0.1293,  0.0868, -0.0835, -0.3925, -0.8650
1492035554.0445430279,1492035554.0469679832, -0.1205,  0.1293,  0.0868, -0.0835, -0.3925, -0.8650
1492035554.0474510193,1492035554.0498790741, -0.1205,  0.1293,  0.0868, -0.0971, -0.4449, -0.8776
1492035554.0502610207,1492035554.0525569916, -0.1205,  0.1293,  0.0868, -0.0971, -0.4449, -0.8776
1492035554.0529270172,1492035554.0552289486, -0.1205,  0.1293,  0.0868, -0.0971, -0.4449, -0.8776
1492035554.0555980206,1492035554.0578999519, -0.1205,  0.1293,  0.1258, -0.0971, -0.4449, -0.8776
1492035554.0582690239,1492035554.0606119633, -0.1870,  0.2382,  0.1321, -0.0534, -0.4903, -0.8939
1492035554.0609800816,1492035554.0632851124, -0.1870,  0.2382,  0.1321, -0.0534, -0.4903, -0.8939
1492035554.0636548996,1492035554.0659511089, -0.1870,  0.2382,  0.1321, -0.0534, -0.4903, -0.8939
1492035554.0663230419,1492035554.0686259270, -0.1870,  0.2382,  0.1321, -0.0534, -0.4903, -0.8864
1492035554.0689940453,1492035554.0713710785, -0.1870,  0.2382,  0.1321,  0.0303, -0.5206, -0.8864
1492035554.0717470646,1492035554.0741748810, -0.1870,  0.2382,  0.1321,  0.0303, -0.5206, -0.8864
1492035554.0745520592,1492035554.0769801140, -0.1870,  0.2382,  0.1321,  0.0303, -0.5206, -0.8864
1492035554.0773589611,1492035554.0797739029, -0.4608,  0.4021, -0.0448,  0.1101, -0.4842, -0.8107
1492035554.0801599026,1492035554.0825860500, -0.4608,  0.4021, -0.0448,  0.1101, -0.4842, -0.8107
1492035554.0829639435,1492035554.0853960514, -0.4608,  0.4021, -0.0448,  0.1101, -0.4842, -0.8107
1492035554.0857729912,1492035554.0881960392, -0.4608,  0.4021, -0.0448,  0.1101, -0.4842, -0.8107
1492035554.0885729790,1492035554.0910480022, -0.4608,  0.4021, -0.0448,  0.2314, -0.4147, -0.6337
1492035554.0914239883,1492035554.0938489437, -0.4608,  0.4021, -0.0448,  0.2314, -0.4147, -0.6337
1492035554.0942230225,1492035554.0966470242, -0.4608,  0.4021, -0.0448,  0.2314, -0.4147, -0.6337
1492035554.0970261097,1492035554.0994570255, -0.7951,  0.7921, -0.1185,  0.2314, -0.4147, -0.5228
1492035554.0998320580,1492035554.1022710800, -0.7951,  0.7921, -0.1185,  0.0206, -0.3516, -0.5228
1492035554.1026489735,1492035554.1050729752, -0.7951,  0.7921, -0.1185,  0.0206, -0.3516, -0.5228
1492035554.1054511070,1492035554.1078789234, -0.7951,  0.7921, -0.1185,  0.0206, -0.3516, -0.5228
1492035554.1082549095,1492035554.1106650829, -0.7951,  0.7921, -0.1185,  0.1074, -0.1819, -0.3313
1492035554.1110351086,1492035554.1133439541, -0.7951,  0.7921, -0.1185,  0.1074, -0.1819, -0.3313
1492035554.1137139797,1492035554.1160140038, -0.7951,  0.7921, -0.1185,  0.1074, -0.1819, -0.3313
1492035554.1163840294,1492035554.1186819077, -0.4978,  0.9604, -0.2257,  0.1074, -0.1819, -0.3313
1492035554.1190528870,1492035554.1214749813, -0.4978,  0.9604, -0.2257,  0.2005, -0.0679, -0.1473
1492035554.1218509674,1492035554.1242749691, -0.4978,  0.9604, -0.2257,  0.2005, -0.0679, -0.1473
1492035554.1246500015,1492035554.1270780563, -0.4978,  0.9604, -0.2257,  0.2005, -0.0679, -0.1473
1492035554.1274549961,1492035554.1298799515, -0.4978,  0.9604, -0.2257,  0.2005, -0.0679, -0.1473
1492035554.1302559376,1492035554.1326849461, -0.4978,  0.9604, -0.2257,  0.1918,  0.0029, -0.0032
1492035554.1330630779,1492035554.1354939938, -0.4978,  0.9604, -0.2257,  0.1918,  0.0029, -0.0032
1492035554.1358718872,1492035554.1382970810, -0.2634,  0.6511, -0.3109,  0.1918,  0.0029, -0.0032
1492035554.1386730671,1492035554.1411008835, -0.2637,  0.6511, -0.3109,  0.1918,  0.0336,  0.0889
1492035554.1414780617,1492035554.1439089775, -0.2637,  0.6511, -0.3109,  0.2522,  0.0336,  0.0889
1492035554.1442859173,1492035554.1467180252, -0.2637,  0.6511, -0.3109,  0.2522,  0.0336,  0.0889
1492035554.1470949650,1492035554.1495189667, -0.2637,  0.6511, -0.3109,  0.2522,  0.0336,  0.0889
1492035554.1498980522,1492035554.1523408890, -0.2637,  0.6511, -0.3109,  0.2947,  0.0556,  0.2060
1492035554.1527171135,1492035554.1551420689, -0.2637,  0.6511, -0.3109,  0.2947,  0.0556,  0.2060
1492035554.1555190086,1492035554.1579511166, -0.2637,  0.3679, -0.3202,  0.2947,  0.0556,  0.2060
1492035554.1583280563,1492035554.1607201099, -0.2119,  0.3679, -0.3202,  0.2947,  0.0556,  0.2060
1492035554.1611900330,1492035554.1634941101, -0.2119,  0.3679, -0.3202,  0.3149,  0.0863,  0.2647
1492035554.1638650894,1492035554.1661679745, -0.2119,  0.3679, -0.3202,  0.3149,  0.0863,  0.2647
1492035554.1665370464,1492035554.1688370705, -0.2119,  0.3679, -0.3202,  0.3149,  0.0863,  0.2647
1492035554.1692059040,1492035554.1716480255, -0.2119,  0.3679, -0.3202,  0.3149,  0.0706,  0.1698
1492035554.1720249653,1492035554.1744530201, -0.2119,  0.3679, -0.3202,  0.3045,  0.0769,  0.1698
1492035554.1748290062,1492035554.1772499084, -0.2119,  0.3679, -0.2428,  0.3045,  0.0769,  0.1698
1492035554.1776258945,1492035554.1800630093, -0.1878,  0.0479, -0.2428,  0.3045,  0.0769,  0.1698
1492035554.1804308891,1492035554.1828560829, -0.1878,  0.0479, -0.2428,  0.1584,  0.2887,  0.4168
1492035554.1832330227,1492035554.1856539249, -0.1878,  0.0479, -0.2428,  0.1584,  0.2887,  0.4168
1492035554.1860289574,1492035554.1884570122, -0.1878,  0.0479, -0.2428,  0.1584,  0.2887,  0.4168
1492035554.1888310909,1492035554.1912660599, -0.1878,  0.0479, -0.2428,  0.1584,  0.2887,  0.4168
1492035554.1916420460,1492035554.1940629482, -0.1878,  0.0479, -0.2428, -0.1423, -0.3858,  0.5942
1492035554.1944398880,1492035554.1968719959, -0.1878,  0.0479,  0.3509, -0.1423, -0.3858,  0.5942
1492035554.1972470284,1492035554.1996700764, -0.9977,  0.2522,  0.3506, -0.1423, -0.3858,  0.5942
1492035554.2000529766,1492035554.2023530006, -0.9977,  0.2522,  0.3506, -0.1423, -0.3858,  0.3739
1492035554.2027220726,1492035554.2050249577, -0.9977,  0.2522,  0.3506,  0.1342, -0.0507,  0.3739
1492035554.2053940296,1492035554.2076919079, -0.9977,  0.2522,  0.3506,  0.1342, -0.0507,  0.3739
1492035554.2080609798,1492035554.2104609013, -0.9977,  0.2522,  0.3506,  0.1342, -0.0507,  0.3739
1492035554.2108368874,1492035554.2132630348, -0.9977,  0.2522,  0.3506,  0.1811,  0.1458,  0.4305
1492035554.2136371136,1492035554.2160611153, -0.9977,  0.2522,  0.3506,  0.1855,  0.1458,  0.4305
1492035554.2164380550,1492035554.2188661098, -0.2079,  0.4939, -0.2340,  0.1855,  0.1458,  0.4305
1492035554.2192399502,1492035554.2216689587, -0.2079,  0.4939, -0.2340,  0.1855,  0.1458,  0.4305
1492035554.2220430374,1492035554.2244660854, -0.2079,  0.4939, -0.2340, -0.1715,  0.4271,  0.9458
1492035554.2248439789,1492035554.2272679806, -0.2079,  0.4939, -0.2340, -0.1715,  0.4271,  0.9458
1492035554.2276430130,1492035554.2300739288, -0.2079,  0.4939, -0.2340, -0.1715,  0.4271,  0.9458
1492035554.2304489613,1492035554.2328789234, -0.2079,  0.4939, -0.2340, -0.1715,  0.4271,  0.7036
1492035554.2332539558,1492035554.2356770039, -0.2079,  0.4939, -0.2340,  0.0952,  0.7411,  0.7063
1492035554.2360539436,1492035554.2384779453,  0.0222,  0.0346, -0.3205,  0.0952,  0.7411,  0.7063
1492035554.2388548851,1492035554.2412989140,  0.0222,  0.0346, -0.3205,  0.0952,  0.7411,  0.7063
1492035554.2416749001,1492035554.2440960407,  0.0222,  0.0346, -0.3205,  0.5483,  0.1319,  0.3960
1492035554.2444748878,1492035554.2469010353,  0.0222,  0.0346, -0.3205,  0.5506,  0.1319,  0.3960
1492035554.2472770214,1492035554.2496991158,  0.0222,  0.0346, -0.3205,  0.5506,  0.1319,  0.3960
1492035554.2500839233,1492035554.2523889542,  0.0222,  0.0346, -0.3205,  0.5506,  0.1319,  0.3960
1492035554.2527589798,1492035554.2550640106,  0.0222,  0.0346, -0.3205,  0.2914, -0.4021,  0.2461
1492035554.2554349899,1492035554.2577309608, -0.1641,  0.1448,  0.1970,  0.2914, -0.4021,  0.2461
1492035554.2580990791,1492035554.2604660988, -0.1641,  0.1448,  0.1970,  0.2914, -0.4021,  0.2461
1492035554.2608408928,1492035554.2632660866, -0.1641,  0.1448,  0.1970,  0.2914, -0.4021,  0.2461
1492035554.2636399269,1492035554.2660698891, -0.1641,  0.1448,  0.1970, -0.0084, -0.1068,  0.2361
1492035554.2664480209,1492035554.2688748837, -0.1641,  0.1448,  0.1970, -0.0084, -0.1068,  0.2361
1492035554.2692530155,1492035554.2716898918, -0.1641,  0.1448,  0.1970, -0.0084, -0.1068,  0.2361
1492035554.2720680237,1492035554.2744929790, -0.1641,  0.1448,  0.1970, -0.0084, -0.1068,  0.2756
1492035554.2748720646,1492035554.2772989273, -0.2849,  0.1310, -0.0359,  0.3508,  0.1858,  0.2756
1492035554.2777829170,1492035554.2802510262, -0.2849,  0.1310, -0.0359,  0.3508,  0.1858,  0.2756
1492035554.2806289196,1492035554.2830519676, -0.2849,  0.1310, -0.0359,  0.3508,  0.1858,  0.2756
1492035554.2834289074,1492035554.2858591080, -0.2849,  0.1310, -0.0359,  0.3195,  0.1857,  0.2400
1492035554.2862360477,1492035554.2886579037, -0.2849,  0.1310, -0.0359,  0.3195,  0.1857,  0.2400
1492035554.2890329361,1492035554.2914659977, -0.2849,  0.1310, -0.0359,  0.3195,  0.1857,  0.2400
1492035554.2918410301,1492035554.2942659855, -0.2849,  0.1310, -0.0359,  0.3195,  0.1857,  0.2400
1492035554.2946419716,1492035554.2970681190, -0.3241,  0.1435, -0.0047,  0.2917,  0.2228,  0.1947
1492035554.2974450588,1492035554.2998759747, -0.3241,  0.1435, -0.0047,  0.2917,  0.2228,  0.1947
1492035554.3002541065,1492035554.3025538921, -0.3241,  0.1435, -0.0047,  0.2917,  0.2228,  0.1947
1492035554.3029239178,1492035554.3052239418, -0.3241,  0.1435, -0.0047,  0.2917,  0.2228,  0.1548
1492035554.3055930138,1492035554.3078970909, -0.3241,  0.1435, -0.0047,  0.2375,  0.2086,  0.1548
1492035554.3082649708,1492035554.3106911182, -0.3241,  0.1435, -0.0047,  0.2375,  0.2086,  0.1548
1492035554.3110690117,1492035554.3135030270, -0.3241,  0.1435, -0.0047,  0.2375,  0.2086,  0.1548
1492035554.3138809204,1492035554.3163020611, -0.3241,  0.1106,  0.0856,  0.2741,  0.2153, -0.0029
1492035554.3166799545,1492035554.3191080093, -0.5348,  0.1106,  0.0856,  0.2741,  0.2153, -0.0029
1492035554.3194859028,1492035554.3219280243, -0.5348,  0.1106,  0.0856,  0.2741,  0.2153, -0.0029
1492035554.3223049641,1492035554.3247270584, -0.5348,  0.1106,  0.0856,  0.2741,  0.2153, -0.0029
1492035554.3251070976,1492035554.3275339603, -0.5348,  0.1106,  0.0856,  0.2401,  0.2027, -0.0693
1492035554.3279109001,1492035554.3303430080, -0.5348,  0.1106,  0.0856,  0.2401,  0.2027, -0.0693
1492035554.3307209015,1492035554.3331480026, -0.5348,  0.1106,  0.0856,  0.2401,  0.2027, -0.0693
1492035554.3335270882,1492035554.3359580040, -0.5348, -0.0847,  0.2638,  0.2401,  0.2027,  0.0948
1492035554.3363339901,1492035554.3387570381, -0.6742, -0.0816,  0.2638,  0.1538,  0.2168,  0.0956
1492035554.3391339779,1492035554.3415689468, -0.6742, -0.0816,  0.2638,  0.1538,  0.2168,  0.0956
1492035554.3419458866,1492035554.3443720341, -0.6742, -0.0816,  0.2638,  0.1538,  0.2168,  0.0956
1492035554.3447480202,1492035554.3471748829, -0.6742, -0.0816,  0.2638,  0.0381,  0.1825,  0.1846
1492035554.3475511074,1492035554.3500180244, -0.6742, -0.0816,  0.2638,  0.0381,  0.1825,  0.1846
1492035554.3503880501,1492035554.3526909351, -0.6742, -0.0816,  0.2638,  0.0381,  0.1825,  0.1846
1492035554.3530609608,1492035554.3553628922, -0.6742, -0.0816,  0.5412,  0.0381,  0.1825,  0.1846
1492035554.3557300568,1492035554.3580329418, -0.4263, -0.3619,  0.5412, -0.0229,  0.1674,  0.1484
1492035554.3584010601,1492035554.3607480526, -0.4263, -0.3619,  0.5412, -0.0229,  0.1674,  0.1484
1492035554.3611230850,1492035554.3635489941, -0.4263, -0.3619,  0.5412, -0.0229,  0.1674,  0.1484
1492035554.3639249802,1492035554.3663499355, -0.4263, -0.3619,  0.5412, -0.0229,  0.1674,  0.1484
1492035554.3667230606,1492035554.3691480160, -0.4263, -0.3619,  0.5412,  0.1232,  0.1225,  0.0543
1492035554.3695240021,1492035554.3719530106, -0.4263, -0.3619,  0.5412,  0.1232,  0.1225,  0.0543
1492035554.3723299503,1492035554.3747549057, -0.4263, -0.3619,  0.5412,  0.1232,  0.1225,  0.0543
1492035554.3751330376,1492035554.3775520325, -0.4931, -0.0837,  0.0177,  0.1232,  0.0678,  0.0103
1492035554.3779280186,1492035554.3803610802, -0.4931, -0.0837,  0.0177,  0.4963,  0.0693,  0.0103
1492035554.3807370663,1492035554.3831601143, -0.4931, -0.0837,  0.0177,  0.4963,  0.0693,  0.0103
1492035554.3835380077,1492035554.3859610558, -0.4931, -0.0837,  0.0177,  0.4963,  0.0693,  0.0103
1492035554.3863360882,1492035554.3887629509, -0.4931, -0.0837,  0.0177,  0.4898,  0.1915,  0.2156
1492035554.3891389370,1492035554.3915629387, -0.4931, -0.0837,  0.0177,  0.4898,  0.1915,  0.2156
1492035554.3919379711,1492035554.3943629265, -0.4931, -0.0837,  0.0177,  0.4898,  0.1915,  0.2156
1492035554.3948531151,1492035554.3972830772, -0.3983,  0.5348,  0.1123,  0.4898,  0.1915,  0.2156
1492035554.3976581097,1492035554.4000899792, -0.3983,  0.5348,  0.1123,  0.1305,  0.2169,  0.4290
1492035554.4004590511,1492035554.4027640820, -0.3983,  0.5348,  0.1123,  0.1305,  0.2169,  0.4290
1492035554.4031360149,1492035554.4054338932, -0.3983,  0.5348,  0.1123,  0.1305,  0.2169,  0.4290
1492035554.4058020115,1492035554.4081010818, -0.3983,  0.5348,  0.1123,  0.1305,  0.2169,  0.3161
1492035554.4084689617,1492035554.4108839035, -0.3983,  0.5348,  0.1123,  0.0003,  0.1884,  0.3161
1492035554.4112589359,1492035554.4136838913, -0.3983,  0.5348,  0.1123,  0.0003,  0.1884,  0.3161
1492035554.4140620232,1492035554.4164810181, -0.3372, -0.0102, -0.0066,  0.0003,  0.1884,  0.3161
1492035554.4168601036,1492035554.4192900658, -0.3372, -0.0102, -0.0066,  0.0818,  0.2816,  0.3917
1492035554.4196660519,1492035554.4221019745, -0.3372, -0.0102, -0.0066,  0.0818,  0.2816,  0.3917
1492035554.4224801064,1492035554.4249160290, -0.3372, -0.0102, -0.0066,  0.0818,  0.2816,  0.3917
1492035554.4252939224,1492035554.4277191162, -0.3372, -0.0102, -0.0066,  0.0818,  0.2816,  0.3917
1492035554.4280960560,1492035554.4305129051, -0.3372, -0.0102, -0.0066, -0.2309,  0.2907,  0.4556
1492035554.4308819771,1492035554.4331879616, -0.3372, -0.0102, -0.0066, -0.2309,  0.2907,  0.4556
1492035554.4335589409,1492035554.4358580112, -0.5110, -0.2108,  0.3587, -0.2309,  0.2907,  0.4556
1492035554.4362258911,1492035554.4385230541, -0.5110, -0.2108,  0.3587, -0.2309,  0.2907,  0.4556
1492035554.4388909340,1492035554.4412839413, -0.5110, -0.2108,  0.3587, -0.3271,  0.2309,  0.6638
1492035554.4416580200,1492035554.4440801144, -0.5110, -0.2108,  0.3587, -0.3271,  0.2309,  0.6638
1492035554.4444549084,1492035554.4468879700, -0.5110, -0.2108,  0.3587, -0.3271,  0.2309,  0.6638
1492035554.4472649097,1492035554.4496889114, -0.5110, -0.2108,  0.3587, -0.3271,  0.2494,  0.7598
1492035554.4500739574,1492035554.4523758888, -0.5110, -0.2108,  0.3587, -0.0313,  0.2494,  0.7598
1492035554.4527440071,1492035554.4550490379, -0.5110, -0.0345,  0.1600, -0.0313,  0.2494,  0.7598
1492035554.4554169178,1492035554.4577209949, -0.7857, -0.0345,  0.1600, -0.0313,  0.2494,  0.7598
1492035554.4580910206,1492035554.4604620934, -0.7857, -0.0345,  0.1600,  0.1354,  0.3427,  0.7613
1492035554.4608380795,1492035554.4632689953, -0.7857, -0.0345,  0.1600,  0.1354,  0.3427,  0.7613
1492035554.4636449814,1492035554.4660649300, -0.7857, -0.0345,  0.1600,  0.1354,  0.3427,  0.7613
1492035554.4664409161,1492035554.4688689709, -0.7857, -0.0345,  0.1600,  0.1354,  0.3427,  0.7613
1492035554.4692449570,1492035554.4716780186, -0.7857, -0.0345,  0.1600,  0.2456,  0.3748,  0.6927
1492035554.4720549583,1492035554.4744820595, -0.7857, -0.0345,  0.2027,  0.2456,  0.3748,  0.6927
1492035554.4748558998,1492035554.4772861004, -0.6627, -0.1320,  0.2027,  0.2456,  0.3748,  0.6927
1492035554.4776620865,1492035554.4800970554, -0.6627, -0.1320,  0.2027,  0.2456,  0.3748,  0.6236
1492035554.4804708958,1492035554.4828920364, -0.6627, -0.1320,  0.2027,  0.3534,  0.4101,  0.6236
1492035554.4832680225,1492035554.4857010841, -0.6627, -0.1320,  0.2027,  0.3534,  0.4101,  0.6236
1492035554.4860761166,1492035554.4885020256, -0.6627, -0.1320,  0.2027,  0.3534,  0.4101,  0.6236
1492035554.4888770580,1492035554.4913220406, -0.6627, -0.1320,  0.2027,  0.3395,  0.4535,  0.5437
1492035554.4916970730,1492035554.4941198826, -0.6627, -0.1320,  0.1402,  0.3395,  0.4535,  0.5437
1492035554.4944970608,1492035554.4969189167, -0.5164, -0.4014,  0.1397,  0.3395,  0.4535,  0.5437
1492035554.4972929955,1492035554.4997229576, -0.5164, -0.4014,  0.1397,  0.3395,  0.4535,  0.5437
1492035554.5001060963,1492035554.5024049282, -0.5164, -0.4014,  0.1397,  0.2643,  0.4852,  0.4971
1492035554.5027740002,1492035554.5050749779, -0.5164, -0.4014,  0.1397,  0.2643,  0.4852,  0.4971
1492035554.5054430962,1492035554.5077509880, -0.5164, -0.4014,  0.1397,  0.2643,  0.4852,  0.4971
1492035554.5081191063,1492035554.5104749203, -0.5164, -0.4014,  0.1397,  0.2643,  0.4852,  0.4971
1492035554.5109550953,1492035554.5133829117, -0.5164, -0.4014,  0.1397,  0.1588,  0.4569,  0.4782
1492035554.5137569904,1492035554.5161790848, -0.4268, -0.3702,  0.0977,  0.1588,  0.4569,  0.4782
1492035554.5165569782,1492035554.5189800262, -0.4268, -0.3702,  0.0977,  0.1588,  0.4569,  0.4782
1492035554.5193560123,1492035554.5218288898, -0.4268, -0.3702,  0.0977,  0.1588,  0.3813,  0.4230
1492035554.5222039223,1492035554.5246269703, -0.4268, -0.3702,  0.0977,  0.0202,  0.3813,  0.4230
1492035554.5250029564,1492035554.5274219513, -0.4268, -0.3702,  0.0977,  0.0202,  0.3813,  0.4230
1492035554.5277988911,1492035554.5302410126, -0.4268, -0.3702,  0.0977,  0.0202,  0.3813,  0.4230
1492035554.5306179523,1492035554.5330400467, -0.4268, -0.3702,  0.0977, -0.0994,  0.3104,  0.3644
1492035554.5334160328,1492035554.5358459949, -0.2868, -0.3264,  0.1462, -0.0994,  0.3104,  0.3644
1492035554.5362229347,1492035554.5386490822, -0.2868, -0.3264,  0.1462, -0.0994,  0.3104,  0.3644
1492035554.5390241146,1492035554.5414910316, -0.2868, -0.3264,  0.1462, -0.0994,  0.3104,  0.3644
1492035554.5418651104,1492035554.5442929268, -0.2868, -0.3264,  0.1462, -0.1470,  0.2715,  0.2802
1492035554.5446710587,1492035554.5471000671, -0.2868, -0.3264,  0.1462, -0.1470,  0.2715,  0.2802
1492035554.5474739075,1492035554.5499050617, -0.2868, -0.3264,  0.1462, -0.1470,  0.2715,  0.2802
1492035554.5503339767,1492035554.5526449680, -0.2868, -0.3264,  0.1462, -0.1470,  0.2197,  0.1570
1492035554.5530130863,1492035554.5553081036, -0.0345, -0.2744,  0.1243, -0.1874,  0.2197,  0.1570
1492035554.5556790829,1492035554.5579819679, -0.0345, -0.2744,  0.1243, -0.1874,  0.2197,  0.1570
1492035554.5583510399,1492035554.5606598854, -0.0345, -0.2744,  0.1243, -0.1874,  0.2197,  0.1570
1492035554.5610280037,1492035554.5633239746, -0.0345, -0.2744,  0.1243, -0.2721,  0.1276,  0.0297
1492035554.5636940002,1492035554.5659959316, -0.0345, -0.2744,  0.1243, -0.2721,  0.1276,  0.0297
1492035554.5663630962,1492035554.5686659813, -0.0345, -0.2744,  0.1243, -0.2721,  0.1276,  0.0297
1492035554.5690360069,1492035554.5714619160, -0.0345, -0.2744,  0.1243, -0.2721,  0.1276,  0.0297
1492035554.5718400478,1492035554.5742750168,  0.1608, -0.1661,  0.1598, -0.3385,  0.0798, -0.1052
1492035554.5746510029,1492035554.5770730972,  0.1618, -0.1661,  0.1598, -0.3385,  0.0798, -0.1052
1492035554.5774490833,1492035554.5798790455,  0.1618, -0.1661,  0.1598, -0.3385,  0.0798, -0.1052
1492035554.5802540779,1492035554.5826809406,  0.1618, -0.1661,  0.1598, -0.3385,  0.0798, -0.1052
1492035554.5830559731,1492035554.5854790211,  0.1618, -0.1661,  0.1598, -0.2840,  0.0733, -0.3321
1492035554.5858550072,1492035554.5882890224,  0.1618, -0.1661,  0.1598, -0.2840,  0.0733, -0.3321
1492035554.5886659622,1492035554.5911049843,  0.1618, -0.1661,  0.1598, -0.2840,  0.0733, -0.3321
1492035554.5914819241,1492035554.5939040184,  0.1618, -0.0020,  0.0215, -0.3543,  0.0685, -0.5609
1492035554.5942800045,1492035554.5967121124,  0.1783, -0.0020,  0.0215, -0.3521,  0.0685, -0.5609
1492035554.5970909595,1492035554.5995171070,  0.1783, -0.0020,  0.0215, -0.3521,  0.0685, -0.5609
1492035554.5998940468,1492035554.6022179127,  0.1783, -0.0020,  0.0215, -0.3521,  0.0685, -0.5609
1492035554.6025888920,1492035554.6048870087,  0.1783, -0.0020,  0.0215, -0.3660,  0.0493, -0.7292
1492035554.6052570343,1492035554.6075539589,  0.1783, -0.0020,  0.0215, -0.3660,  0.0493, -0.7292
1492035554.6079220772,1492035554.6102840900,  0.1783, -0.0020,  0.0215, -0.3660,  0.0493, -0.7292
1492035554.6106619835,1492035554.6130850315,  0.1783, -0.0020,  0.1777, -0.3660,  0.0493, -0.7292
1492035554.6134629250,1492035554.6158881187,  0.2330,  0.0584,  0.1779, -0.2395, -0.0034, -0.9194
1492035554.6162650585,1492035554.6186959743,  0.2330,  0.0584,  0.1779, -0.2395, -0.0034, -0.9194
1492035554.6190741062,1492035554.6215119362,  0.2330,  0.0584,  0.1779, -0.2395, -0.0034, -0.9194
1492035554.6218869686,1492035554.6243109703,  0.2330,  0.0584,  0.1779, -0.2395, -0.0034, -0.9994
1492035554.6246879101,1492035554.6271119118,  0.2330,  0.0584,  0.1779, -0.0779, -0.0915, -0.9994
1492035554.6275959015,1492035554.6300289631,  0.2330,  0.0584,  0.1779, -0.0779, -0.0915, -0.9994
1492035554.6304049492,1492035554.6328330040,  0.2330,  0.0584,  0.1623, -0.0779, -0.0915, -0.9994
1492035554.6332120895,1492035554.6356348991, -0.0446,  0.0005,  0.1563,  0.0128, -0.1987, -1.0000
1492035554.6360120773,1492035554.6384329796, -0.0446,  0.0005,  0.1563,  0.0128, -0.1987, -1.0000
1492035554.6388099194,1492035554.6412460804, -0.0446,  0.0005,  0.1563,  0.0128, -0.1987, -1.0000
1492035554.6416211128,1492035554.6440460682, -0.0446,  0.0005,  0.1563,  0.0128, -0.1987, -1.0000
1492035554.6444220543,1492035554.6468451023, -0.0446,  0.0005,  0.1563,  0.0544, -0.2729, -1.0000
1492035554.6472229958,1492035554.6496479511, -0.0446,  0.0005,  0.1563,  0.0544, -0.2729, -1.0000
1492035554.6500320435,1492035554.6523330212, -0.0446,  0.0005,  0.1563,  0.0544, -0.2729, -1.0000
1492035554.6527009010,1492035554.6550059319, -0.1617, -0.0945,  0.1597,  0.0544, -0.2729, -1.0000
1492035554.6553769112,1492035554.6576800346, -0.1617, -0.0945,  0.1597,  0.0993, -0.3021, -1.0000
1492035554.6580510139,1492035554.6604321003, -0.1617, -0.0945,  0.1597,  0.0993, -0.3021, -1.0000
1492035554.6608080864,1492035554.6632409096, -0.1617, -0.0945,  0.1597,  0.0993, -0.3021, -1.0000
1492035554.6636168957,1492035554.6660430431, -0.1617, -0.0945,  0.1597,  0.0602, -0.3236, -0.9998
1492035554.6664199829,1492035554.6688549519, -0.1617, -0.0945,  0.1597,  0.0594, -0.3236, -0.9998
1492035554.6692340374,1492035554.6716790199, -0.1617, -0.0945,  0.1597,  0.0594, -0.3236, -0.9998
1492035554.6720540524,1492035554.6744821072, -0.1589, -0.0293,  0.0970,  0.0594, -0.3236, -0.9998
1492035554.6748580933,1492035554.6772890091, -0.1589, -0.0293,  0.0970,  0.0248, -0.3414, -0.9918
1492035554.6776669025,1492035554.6801059246, -0.1589, -0.0293,  0.0970,  0.0248, -0.3414, -0.9918
1492035554.6804749966,1492035554.6827719212, -0.1589, -0.0293,  0.0970,  0.0248, -0.3414, -0.9918
1492035554.6831409931,1492035554.6854469776, -0.1589, -0.0293,  0.0970,  0.0248, -0.3414, -0.9918
1492035554.6858150959,1492035554.6881160736, -0.1589, -0.0293,  0.0970, -0.0298, -0.3788, -0.9959
1492035554.6884870529,1492035554.6908481121, -0.1589, -0.0293,  0.0970, -0.0298, -0.3788, -0.9959
1492035554.6912200451,1492035554.6935210228, -0.1530,  0.0161,  0.0453, -0.0298, -0.3788, -0.9959
1492035554.6938889027,1492035554.6961901188, -0.1530,  0.0161,  0.0453, -0.0298, -0.3788, -0.9976
1492035554.6965570450,1492035554.6988639832, -0.1530,  0.0161,  0.0453, -0.0296, -0.4164, -0.9976
1492035554.6992330551,1492035554.7015728951, -0.1530,  0.0161,  0.0453, -0.0296, -0.4164, -0.9976
1492035554.7019410133,1492035554.7042379379, -0.1530,  0.0161,  0.0453, -0.0296, -0.4164, -0.9976
1492035554.7046079636,1492035554.7069098949, -0.1530,  0.0161,  0.0453, -0.0296, -0.4633, -0.9695
1492035554.7072789669,1492035554.7095799446, -0.1530,  0.0161,  0.0453,  0.0038, -0.4633, -0.9695
1492035554.7099480629,1492035554.7123780251, -0.1530,  0.0161,  0.0776,  0.0038, -0.4633, -0.9695
1492035554.7127549648,1492035554.7151811123, -0.2061,  0.0891,  0.0776,  0.0038, -0.4633, -0.9695
1492035554.7155590057,1492035554.7179820538, -0.2061,  0.0891,  0.0776,  0.0399, -0.5105, -0.9319
1492035554.7183589935,1492035554.7208330631, -0.2061,  0.0891,  0.0776,  0.0399, -0.5105, -0.9319
1492035554.7212100029,1492035554.7236399651, -0.2061,  0.0891,  0.0776,  0.0399, -0.5105, -0.9319
1492035554.7240169048,1492035554.7264409065, -0.2061,  0.0891,  0.0776,  0.0399, -0.5105, -0.9319
1492035554.7268168926,1492035554.7292430401, -0.2061,  0.0891,  0.0776,  0.1286, -0.5478, -0.9104
1492035554.7296199799,1492035554.7320590019, -0.2061,  0.0891,  0.0335,  0.1286, -0.5478, -0.9104
1492035554.7324340343,1492035554.7348620892, -0.3650,  0.2652,  0.0335,  0.1286, -0.5478, -0.9104
1492035554.7352380753,1492035554.7376620770, -0.3650,  0.2652,  0.0335,  0.1286, -0.5166, -0.8736
1492035554.7380380630,1492035554.7404699326, -0.3650,  0.2652,  0.0335,  0.2352, -0.5224, -0.8736
1492035554.7409479618,1492035554.7433700562, -0.3650,  0.2652,  0.0335,  0.2352, -0.5224, -0.8736
1492035554.7437479496,1492035554.7461729050, -0.3650,  0.2652,  0.0335,  0.2352, -0.5224, -0.8736
1492035554.7465488911,1492035554.7489700317, -0.3650,  0.2652,  0.0335,  0.2693, -0.4686, -0.7456
1492035554.7493469715,1492035554.7517280579, -0.3650,  0.2652, -0.2399,  0.2693, -0.4686, -0.7456
1492035554.7520968914,1492035554.7543919086, -0.8176,  0.4680, -0.2377,  0.2693, -0.4686, -0.7456
1492035554.7547600269,1492035554.7570679188, -0.8176,  0.4680, -0.2377,  0.2693, -0.4686, -0.7456
1492035554.7574369907,1492035554.7597370148, -0.8176,  0.4680, -0.2377,  0.1119, -0.4876, -0.6812
1492035554.7601120472,1492035554.7625370026, -0.8176,  0.4680, -0.2377,  0.1119, -0.4876, -0.6812
1492035554.7629120350,1492035554.7653419971, -0.8176,  0.4680, -0.2377,  0.1119, -0.4876, -0.6812
1492035554.7657179832,1492035554.7681388855, -0.8176,  0.4680, -0.2377,  0.1119, -0.4876, -0.6099
1492035554.7685151100,1492035554.7709419727, -0.8176,  0.4680, -0.2377, -0.0499, -0.4739, -0.6099
1492035554.7713170052,1492035554.7737429142, -0.8712,  0.7511, -0.3819, -0.0499, -0.4739, -0.6099
1492035554.7741210461,1492035554.7765460014, -0.8712,  0.7511, -0.3819, -0.0499, -0.4739, -0.6099
1492035554.7769219875,1492035554.7793519497, -0.8712,  0.7511, -0.3819, -0.0365, -0.2760, -0.3814
1492035554.7797288895,1492035554.7821559906, -0.8712,  0.7511, -0.3819, -0.0365, -0.2760, -0.3814
1492035554.7825329304,1492035554.7849559784, -0.8712,  0.7511, -0.3819, -0.0365, -0.2760, -0.3814
1492035554.7853291035,1492035554.7877550125, -0.8712,  0.7511, -0.3819, -0.0365, -0.2760, -0.3814
1492035554.7881290913,1492035554.7905299664, -0.8712,  0.7511, -0.3819, -0.0623, -0.1652, -0.1718
1492035554.7909009457,1492035554.7932059765, -0.5146,  0.9079, -0.3672, -0.0623, -0.1652, -0.1718
1492035554.7935760021,1492035554.7958769798, -0.5146,  0.9079, -0.3672, -0.0623, -0.1652, -0.1718
1492035554.7962450981,1492035554.7985460758, -0.5146,  0.9079, -0.3672, -0.0623, -0.1652, -0.1718
1492035554.7989139557,1492035554.8013110161, -0.5146,  0.9079, -0.3672, -0.0716, -0.0052, -0.0061
1492035554.8016889095,1492035554.8041129112, -0.5146,  0.9079, -0.3672, -0.0716, -0.0052, -0.0061
1492035554.8044910431,1492035554.8069140911, -0.5146,  0.9079, -0.3672, -0.0716, -0.0052, -0.0061
1492035554.8072919846,1492035554.8097209930, -0.5146,  0.9079, -0.3672, -0.0716,  0.0495,  0.0938
1492035554.8101060390,1492035554.8125190735, -0.1879,  0.6384, -0.2790, -0.0379,  0.0487,  0.0938
1492035554.8128950596,1492035554.8153231144, -0.1879,  0.6384, -0.2790, -0.0379,  0.0487,  0.0938
1492035554.8156979084,1492035554.8181269169, -0.1879,  0.6384, -0.2790, -0.0379,  0.0487,  0.0938
1492035554.8185019493,1492035554.8209390640, -0.1879,  0.6384, -0.2790,  0.0168,  0.0438,  0.2133
1492035554.8213140965,1492035554.8237450123, -0.1879,  0.6384, -0.2790,  0.0168,  0.0438,  0.2133
1492035554.8241229057,1492035554.8265509605, -0.1879,  0.6384, -0.2790,  0.0168,  0.0438,  0.2133
1492035554.8269259930,1492035554.8293499947, -0.1879,  0.6384, -0.2790,  0.0168,  0.0438,  0.2133
1492035554.8297240734,1492035554.8321580887, -0.2217,  0.3568, -0.1646,  0.0720,  0.0885,  0.3004
1492035554.8325369358,1492035554.8349618912, -0.2217,  0.3568, -0.1646,  0.0720,  0.0885,  0.3004
1492035554.8353381157,1492035554.8377599716, -0.2217,  0.3568, -0.1646,  0.0720,  0.0885,  0.3004
1492035554.8381369114,1492035554.8405900002, -0.2217,  0.3568, -0.1646,  0.0720,  0.0104,  0.2035
1492035554.8409590721,1492035554.8432600498, -0.2217,  0.3568, -0.1646,  0.1072,  0.0101,  0.2035
1492035554.8436329365,1492035554.8459401131, -0.2217,  0.3568, -0.1646,  0.1072,  0.0101,  0.2035
1492035554.8463110924,1492035554.8486158848, -0.2217,  0.3568, -0.1646,  0.1072,  0.0101,  0.2035
1492035554.8489849567,1492035554.8513600826, -0.2217,  0.0826, -0.1680,  0.1419,  0.2086,  0.2152
1492035554.8517351151,1492035554.8541619778, -0.2122,  0.0826, -0.1680,  0.1419,  0.2086,  0.2152
1492035554.8545379639,1492035554.8569641113, -0.2122,  0.0826, -0.1680,  0.1419,  0.2086,  0.2152
1492035554.8574490547,1492035554.8598771095, -0.2122,  0.0826, -0.1680,  0.1419,  0.2086,  0.2152
1492035554.8602559566,1492035554.8626909256, -0.2122,  0.0826, -0.1680, -0.1293, -0.1266,  0.7178
1492035554.8630669117,1492035554.8654940128, -0.2122,  0.0826, -0.1680, -0.1293, -0.1266,  0.7178
1492035554.8658709526,1492035554.8683049679, -0.2122,  0.0826, -0.1680, -0.1293, -0.1266,  0.7178
1492035554.8686800003,1492035554.8711140156, -0.2122,  0.5123,  0.2514, -0.1293, -0.1266,  0.7574
1492035554.8714890480,1492035554.8739149570, -0.9998,  0.5143,  0.2514, -0.2093, -0.1278,  0.7574
1492035554.8742918968,1492035554.8767220974, -0.9998,  0.5143,  0.2514, -0.2093, -0.1278,  0.7574
1492035554.8770968914,1492035554.8795208931, -0.9998,  0.5143,  0.2514, -0.2093, -0.1278,  0.7574
1492035554.8798959255,1492035554.8823308945, -0.9998,  0.5143,  0.2514, -0.1360,  0.2785,  0.2269
1492035554.8827059269,1492035554.8851349354, -0.9998,  0.5143,  0.2514, -0.1360,  0.2785,  0.2269
1492035554.8855109215,1492035554.8879380226, -0.9998,  0.5143,  0.2514, -0.1360,  0.2785,  0.2269
1492035554.8883140087,1492035554.8907120228, -0.9998,  0.5143, -0.3495, -0.1360,  0.2785,  0.2269
1492035554.8910799026,1492035554.8933789730, -0.1217,  0.4670, -0.3495,  0.2156,  0.3757,  0.8729
1492035554.8937489986,1492035554.8960490227, -0.1217,  0.4670, -0.3495,  0.2156,  0.3757,  0.8729
1492035554.8964180946,1492035554.8987269402, -0.1217,  0.4670, -0.3495,  0.2156,  0.3757,  0.8729
1492035554.8990960121,1492035554.9014809132, -0.1217,  0.4670, -0.3495,  0.2156,  0.3757,  0.8729
1492035554.9018568993,1492035554.9042758942, -0.1217,  0.4670, -0.3495,  0.1108,  0.6687,  0.8851
1492035554.9046530724,1492035554.9070780277, -0.1217,  0.4670, -0.3495,  0.1108,  0.6687,  0.8851
1492035554.9074530602,1492035554.9099690914, -0.1217,  0.4670, -0.3495,  0.1108,  0.6687,  0.8851
1492035554.9103860855,1492035554.9127860069, -0.0288, -0.1819, -0.3287,  0.1108,  0.3664,  0.5490
1492035554.9131600857,1492035554.9155509472, -0.0288, -0.1819, -0.3287,  0.4921,  0.3664,  0.5490
1492035554.9159259796,1492035554.9183909893, -0.0288, -0.1819, -0.3287,  0.4921,  0.3664,  0.5490
1492035554.9187679291,1492035554.9212288857, -0.0288, -0.1819, -0.3287,  0.4921,  0.3664,  0.5490
1492035554.9216029644,1492035554.9239969254, -0.0288, -0.1819, -0.3287,  0.2952, -0.3128,  0.3989
1492035554.9243719578,1492035554.9267640114, -0.0288, -0.1819, -0.3287,  0.2952, -0.3128,  0.3989
1492035554.9271368980,1492035554.9296679497, -0.0288, -0.1819, -0.3287,  0.2952, -0.3128,  0.3989
1492035554.9300529957,1492035554.9324369431, -0.2635,  0.3119,  0.2357,  0.2952, -0.3128,  0.3989
1492035554.9328110218,1492035554.9352049828, -0.2635,  0.3119,  0.2357, -0.1320, -0.2357,  0.2292
1492035554.9355781078,1492035554.9379670620, -0.2635,  0.3119,  0.2357, -0.1320, -0.2357,  0.2292
1492035554.9383890629,1492035554.9407908916, -0.2635,  0.3119,  0.2357, -0.1320, -0.2357,  0.2292
1492035554.9411621094,1492035554.9434618950, -0.2635,  0.3119,  0.2357, -0.1320,  0.0847,  0.2028
1492035554.9438319206,1492035554.9461319447, -0.2635,  0.3119,  0.2357,  0.2877,  0.0814,  0.2028
1492035554.9465019703,1492035554.9488279819, -0.2635,  0.3119,  0.2357,  0.2877,  0.0814,  0.2028
1492035554.9491949081,1492035554.9516389370, -0.3276,  0.1213, -0.0357,  0.2877,  0.0814,  0.2028
1492035554.9520149231,1492035554.9544389248, -0.3276,  0.1213, -0.0357,  0.4157,  0.2150,  0.2434
1492035554.9548161030,1492035554.9572439194, -0.3276,  0.1213, -0.0357,  0.4157,  0.2150,  0.2434
1492035554.9576199055,1492035554.9600539207, -0.3276,  0.1213, -0.0357,  0.4157,  0.2150,  0.2434
1492035554.9604299068,1492035554.9628539085, -0.3276,  0.1213, -0.0357,  0.4157,  0.2150,  0.2434
1492035554.9632298946,1492035554.9656579494, -0.3276,  0.1213, -0.0357,  0.3332,  0.1391,  0.1496
1492035554.9660348892,1492035554.9684560299, -0.3276,  0.1213, -0.0357,  0.3332,  0.1391,  0.1496
1492035554.9688310623,1492035554.9712619781, -0.5303,  0.0486,  0.0399,  0.3332,  0.1391,  0.1496
1492035554.9716370106,1492035554.9740650654, -0.5303,  0.0486,  0.0399,  0.3332,  0.1391, -0.0240
1492035554.9745531082,1492035554.9769759178, -0.5303,  0.0486,  0.0399,  0.3461,  0.1872, -0.0240
1492035554.9773519039,1492035554.9797809124, -0.5303,  0.0486,  0.0399,  0.3461,  0.1872, -0.0240
1492035554.9801659584,1492035554.9824650288, -0.5303,  0.0486,  0.0399,  0.3461,  0.1872, -0.0240
1492035554.9828350544,1492035554.9851338863, -0.5303,  0.0486,  0.0399,  0.2773,  0.1962,  0.0000
1492035554.9855039120,1492035554.9878060818, -0.5303,  0.0486,  0.0399,  0.2773,  0.1962,  0.0000
1492035554.9881739616,1492035554.9906790257, -0.5945, -0.1170,  0.2410,  0.2773,  0.1962,  0.0000
1492035554.9910631180,1492035554.9934809208, -0.5945, -0.1170,  0.2410,  0.2773,  0.1962,  0.0000
1492035554.9938590527,1492035554.9962670803, -0.5945, -0.1170,  0.2410,  0.1894,  0.1852,  0.2133
1492035554.9966409206,1492035554.9990489483, -0.5945, -0.1170,  0.2410,  0.1894,  0.1852,  0.2133
1492035554.9994230270,1492035555.0018529892, -0.5945, -0.1170,  0.2410,  0.1894,  0.1852,  0.2133
1492035555.0022270679,1492035555.0046350956, -0.5945, -0.1170,  0.2410,  0.1894,  0.1852,  0.2289
1492035555.0050098896,1492035555.0074191093, -0.5945, -0.1170,  0.2410,  0.1391,  0.1826,  0.2330
1492035555.0077929497,1492035555.0102169514, -0.3992, -0.2428,  0.3531,  0.1391,  0.1826,  0.2330
1492035555.0105900764,1492035555.0129950047, -0.4009, -0.2428,  0.3531,  0.1391,  0.1826,  0.2330
1492035555.0133700371,1492035555.0157759190, -0.4009, -0.2428,  0.3531,  0.1234,  0.1797,  0.1849
1492035555.0161519051,1492035555.0185630322, -0.4009, -0.2428,  0.3531,  0.1246,  0.1797,  0.1849
1492035555.0189371109,1492035555.0213530064, -0.4009, -0.2428,  0.3531,  0.1246,  0.1797,  0.1849
1492035555.0217270851,1492035555.0241389275, -0.4009, -0.2428,  0.3531,  0.1246,  0.1797,  0.1849
1492035555.0245139599,1492035555.0269169807, -0.4009, -0.2428,  0.3531,  0.1826,  0.1463,  0.1275
1492035555.0272889137,1492035555.0296978951, -0.4009, -0.1881,  0.0800,  0.1826,  0.1463,  0.1275
1492035555.0300810337,1492035555.0324950218, -0.3282, -0.1948,  0.0800,  0.1826,  0.1463,  0.1275
1492035555.0328700542,1492035555.0352809429, -0.3282, -0.1948,  0.0800,  0.1826,  0.1463,  0.1275
1492035555.0356559753,1492035555.0380630493, -0.3282, -0.1948,  0.0800,  0.4937,  0.1214,  0.0252
1492035555.0384380817,1492035555.0408899784, -0.3282, -0.1948,  0.0800,  0.4937,  0.1214,  0.0252
1492035555.0412659645,1492035555.0436959267, -0.3282, -0.1948,  0.0800,  0.4937,  0.1214,  0.0252
1492035555.0440731049,1492035555.0465040207, -0.3282, -0.1948,  0.0800,  0.4937,  0.1387,  0.0821
1492035555.0468809605,1492035555.0493059158, -0.3282, -0.1948, -0.0025,  0.3896,  0.1387,  0.0821
1492035555.0496809483,1492035555.0521199703, -0.4661,  0.3939, -0.0025,  0.3896,  0.1387,  0.0821
1492035555.0524981022,1492035555.0549330711, -0.4661,  0.3939, -0.0025,  0.3896,  0.1387,  0.0821
1492035555.0553109646,1492035555.0577380657, -0.4661,  0.3939, -0.0025,  0.0704,  0.1513,  0.2257
1492035555.0581140518,1492035555.0605490208, -0.4661,  0.3939, -0.0025,  0.0704,  0.1513,  0.2257
1492035555.0609240532,1492035555.0633380413, -0.4661,  0.3939, -0.0025,  0.0704,  0.1513,  0.2257
1492035555.0637118816,1492035555.0661211014, -0.4661,  0.3939, -0.0025,  0.0704,  0.1513,  0.2257
1492035555.0664970875,1492035555.0689160824, -0.4661,  0.3939,  0.2709, -0.0397,  0.2062,  0.2573
1492035555.0692899227,1492035555.0717110634, -0.3683,  0.0164,  0.2699, -0.0397,  0.2062,  0.2573
1492035555.0720849037,1492035555.0744900703, -0.3683,  0.0164,  0.2699, -0.0397,  0.2062,  0.2573
1492035555.0748639107,1492035555.0772759914, -0.3683,  0.0164,  0.2699, -0.0397,  0.2062,  0.3230
1492035555.0776529312,1492035555.0800700188, -0.3683,  0.0164,  0.2699,  0.0561,  0.2107,  0.3230
1492035555.0804409981,1492035555.0827369690, -0.3683,  0.0164,  0.2699,  0.0561,  0.2107,  0.3230
1492035555.0831069946,1492035555.0854120255, -0.3683,  0.0164,  0.2699,  0.0561,  0.2107,  0.3230
1492035555.0857789516,1492035555.0880780220, -0.3683,  0.0164,  0.2699, -0.1241,  0.3098,  0.4708
1492035555.0884470940,1492035555.0909039974, -0.3033,  0.0303,  0.0444, -0.1241,  0.3098,  0.4708
1492035555.0913910866,1492035555.0938100815, -0.3033,  0.0303,  0.0444, -0.1241,  0.3098,  0.4708
1492035555.0941879749,1492035555.0966110229, -0.3033,  0.0303,  0.0444, -0.1241,  0.3098,  0.4708
1492035555.0969870090,1492035555.0994160175, -0.3033,  0.0303,  0.0444, -0.3618,  0.2098,  0.5692
1492035555.0997929573,1492035555.1022620201, -0.3033,  0.0303,  0.0444, -0.3618,  0.2098,  0.5692
1492035555.1026399136,1492035555.1050610542, -0.3033,  0.0303,  0.0444, -0.3618,  0.2098,  0.5692
1492035555.1054379940,1492035555.1078660488, -0.3033,  0.0303,  0.0444, -0.3618,  0.2098,  0.6167
1492035555.1082410812,1492035555.1106779575, -0.6052,  0.0250,  0.1677, -0.1263,  0.1670,  0.6167
1492035555.1110539436,1492035555.1134860516, -0.6052,  0.0250,  0.1677, -0.1263,  0.1670,  0.6167
1492035555.1138610840,1492035555.1162838936, -0.6052,  0.0250,  0.1677, -0.1263,  0.1670,  0.6167
1492035555.1166601181,1492035555.1190850735, -0.6052,  0.0250,  0.1677,  0.1118,  0.2809,  0.6467
1492035555.1194639206,1492035555.1219029427, -0.6052,  0.0250,  0.1677,  0.1118,  0.2809,  0.6467
1492035555.1222789288,1492035555.1247100830, -0.6052,  0.0250,  0.1677,  0.1118,  0.2809,  0.6467
1492035555.1250851154,1492035555.1275069714, -0.6052,  0.0250,  0.1677,  0.1118,  0.2809,  0.6467
1492035555.1278851032,1492035555.1303160191, -0.7226, -0.0317,  0.2067,  0.1992,  0.3280,  0.6611
1492035555.1306869984,1492035555.1329839230, -0.7226, -0.0317,  0.2067,  0.1992,  0.3280,  0.6611
1492035555.1333520412,1492035555.1356589794, -0.7226, -0.0317,  0.2067,  0.1992,  0.3280,  0.6611
1492035555.1360270977,1492035555.1383280754, -0.7226, -0.0317,  0.2067,  0.1992,  0.3280,  0.6611
1492035555.1386959553,1492035555.1410939693, -0.7226, -0.0317,  0.2067,  0.3173,  0.3675,  0.6539
1492035555.1414709091,1492035555.1438999176, -0.7226, -0.0317,  0.2067,  0.3173,  0.3675,  0.6539
1492035555.1442749500,1492035555.1466970444, -0.7226, -0.0317,  0.2067,  0.3173,  0.3675,  0.6539
1492035555.1470720768,1492035555.1494979858, -0.7411, -0.1632,  0.2145,  0.4032,  0.3866,  0.6173
1492035555.1498730183,1492035555.1523139477, -0.7411, -0.1632,  0.2145,  0.4004,  0.3866,  0.6173
1492035555.1526908875,1492035555.1551189423, -0.7411, -0.1632,  0.2145,  0.4004,  0.3866,  0.6173
1492035555.1554930210,1492035555.1579160690, -0.7411, -0.1632,  0.2145,  0.4004,  0.3866,  0.6173
1492035555.1582899094,1492035555.1607511044, -0.7411, -0.1632,  0.2145,  0.3668,  0.4324,  0.5585
1492035555.1611280441,1492035555.1635560989, -0.7411, -0.1632,  0.2145,  0.3668,  0.4324,  0.5585
1492035555.1639299393,1492035555.1663639545, -0.7411, -0.1632,  0.2145,  0.3668,  0.4324,  0.5585
1492035555.1667389870,1492035555.1691620350, -0.5771, -0.2978,  0.1485,  0.3668,  0.4324,  0.5585
1492035555.1695389748,1492035555.1719760895, -0.5771, -0.2978,  0.1485,  0.2974,  0.4896,  0.5446
1492035555.1723508835,1492035555.1747798920, -0.5771, -0.2978,  0.1485,  0.2974,  0.4896,  0.5446
1492035555.1751539707,1492035555.1775801182, -0.5771, -0.2978,  0.1485,  0.2974,  0.4896,  0.5446
1492035555.1779539585,1492035555.1804249287, -0.5771, -0.2978,  0.1485,  0.2271,  0.4665,  0.5191
1492035555.1807940006,1492035555.1830930710, -0.5771, -0.2978,  0.1485,  0.2297,  0.4665,  0.5191
1492035555.1834599972,1492035555.1857650280, -0.5771, -0.2978,  0.1485,  0.2297,  0.4665,  0.5191
1492035555.1861319542,1492035555.1884329319, -0.4443, -0.2665,  0.1313,  0.2297,  0.4665,  0.5191
1492035555.1887989044,1492035555.1911089420, -0.4439, -0.2665,  0.1313,  0.1682,  0.3940,  0.4923
1492035555.1914761066,1492035555.1937770844, -0.4439, -0.2665,  0.1313,  0.1682,  0.3940,  0.4923
1492035555.1941459179,1492035555.1964449883, -0.4439, -0.2665,  0.1313,  0.1682,  0.3940,  0.4923
1492035555.1968131065,1492035555.1991078854, -0.4439, -0.2665,  0.1313,  0.1682,  0.3940,  0.4923
1492035555.1994760036,1492035555.2018849850, -0.4439, -0.2665,  0.1313,  0.1132,  0.3137,  0.4392
1492035555.2022600174,1492035555.2046859264, -0.4439, -0.2665,  0.1313,  0.1132,  0.3137,  0.4392
1492035555.2050619125,1492035555.2074921131, -0.4439, -0.2665,  0.1313,  0.1132,  0.3137,  0.4392
1492035555.2079799175,1492035555.2104270458, -0.3165, -0.3485,  0.1295,  0.1132,  0.3137,  0.3533
1492035555.2108008862,1492035555.2132229805, -0.3165, -0.3485,  0.1295,  0.0926,  0.2913,  0.3540
1492035555.2135999203,1492035555.2160270214, -0.3165, -0.3485,  0.1295,  0.0926,  0.2913,  0.3540
1492035555.2164030075,1492035555.2188329697, -0.3165, -0.3485,  0.1295,  0.0926,  0.2913,  0.3540
1492035555.2192080021,1492035555.2216379642, -0.3165, -0.3485,  0.1295,  0.0457,  0.2793,  0.1980
1492035555.2220129967,1492035555.2244410515, -0.3165, -0.3485,  0.1295,  0.0431,  0.2793,  0.1980
1492035555.2248160839,1492035555.2272429466, -0.3165, -0.3485,  0.1295,  0.0431,  0.2793,  0.1980
1492035555.2276189327,1492035555.2300560474,  0.0522, -0.3606,  0.1327,  0.0431,  0.2793,  0.1980
1492035555.2304329872,1492035555.2328650951,  0.0522, -0.3606,  0.1327, -0.1198,  0.1899,  0.0641
1492035555.2332420349,1492035555.2356688976,  0.0522, -0.3606,  0.1327, -0.1198,  0.1899,  0.0641
1492035555.2360429764,1492035555.2384669781,  0.0522, -0.3606,  0.1327, -0.1198,  0.1899,  0.0641
1492035555.2388429642,1492035555.2412230968,  0.0522, -0.3606,  0.1327, -0.1198,  0.1899,  0.0641
1492035555.2415940762,1492035555.2438879013,  0.0522, -0.3606,  0.1327, -0.2906,  0.0665, -0.0785
1492035555.2442569733,1492035555.2465629578,  0.0522, -0.3606,  0.1327, -0.2906,  0.0665, -0.0785
1492035555.2469298840,1492035555.2492311001,  0.1992, -0.2260,  0.0545, -0.2906,  0.0665, -0.0785
1492035555.2496008873,1492035555.2520539761,  0.1992, -0.2260,  0.0545, -0.2906,  0.0665, -0.2776
1492035555.2524299622,1492035555.2548630238,  0.1992, -0.2260,  0.0545, -0.3514,  0.0676, -0.2776
1492035555.2552399635,1492035555.2576670647,  0.1992, -0.2260,  0.0545, -0.3514,  0.0676, -0.2776
1492035555.2580430508,1492035555.2604761124,  0.1992, -0.2260,  0.0545, -0.3514,  0.0676, -0.2776
1492035555.2608549595,1492035555.2632811069,  0.1992, -0.2260,  0.0545, -0.4478,  0.1105, -0.4917
1492035555.2636580467,1492035555.2660789490,  0.1992, -0.2260,  0.0545, -0.4478,  0.1105, -0.4917
1492035555.2664570808,1492035555.2688879967,  0.2430, -0.0804,  0.0598, -0.4478,  0.1105, -0.4917
1492035555.2692658901,1492035555.2717010975,  0.2430, -0.0804,  0.0598, -0.4478,  0.1105, -0.4917
1492035555.2720789909,1492035555.2745089531,  0.2430, -0.0804,  0.0598, -0.5229,  0.0243, -0.7677
1492035555.2748870850,1492035555.2773160934,  0.2430, -0.0804,  0.0598, -0.5229,  0.0243, -0.7677
1492035555.2776930332,1492035555.2801270485,  0.2430, -0.0804,  0.0598, -0.5229,  0.0243, -0.7677
1492035555.2805058956,1492035555.2829289436,  0.2430, -0.0804,  0.0598, -0.5229, -0.0616, -0.9822
1492035555.2833049297,1492035555.2857389450,  0.2430, -0.0804,  0.0598, -0.4717, -0.0586, -0.9822
1492035555.2861149311,1492035555.2885460854,  0.2472,  0.0967,  0.2358, -0.4717, -0.0586, -0.9822
1492035555.2889239788,1492035555.2912819386,  0.2472,  0.0967,  0.2358, -0.4717, -0.0586, -0.9822
1492035555.2916541100,1492035555.2939519882,  0.2472,  0.0967,  0.2358, -0.2153, -0.1101, -1.0000
1492035555.2943210602,1492035555.2966239452,  0.2472,  0.0967,  0.2358, -0.2153, -0.1101, -1.0000
1492035555.2969930172,1492035555.2992959023,  0.2472,  0.0967,  0.2358, -0.2153, -0.1101, -1.0000
1492035555.2996640205,1492035555.3020908833,  0.2472,  0.0967,  0.2358, -0.2153, -0.1101, -1.0000
1492035555.3024671078,1492035555.3048939705,  0.2472,  0.0967,  0.2358, -0.0309, -0.1509, -1.0000
1492035555.3052721024,1492035555.3077020645, -0.0836, -0.1214,  0.1155, -0.0309, -0.1509, -1.0000
1492035555.3080790043,1492035555.3105061054, -0.0836, -0.1214,  0.1155, -0.0309, -0.1509, -1.0000
1492035555.3108820915,1492035555.3133120537, -0.0836, -0.1214,  0.1155, -0.0309, -0.1509, -1.0000
1492035555.3136930466,1492035555.3176410198, -0.0836, -0.1214,  0.1155, -0.0545, -0.2820, -1.0000
1492035555.3180251122,1492035555.3203299046, -0.0836, -0.1214,  0.1155, -0.0545, -0.2820, -1.0000
1492035555.3207008839,1492035555.3230040073, -0.0836, -0.1214,  0.1155, -0.0545, -0.2820, -1.0000
1492035555.3235061169,1492035555.3258059025, -0.0836, -0.1214,  0.1155, -0.0533, -0.2968, -1.0000
1492035555.3261740208,1492035555.3284800053, -0.2047, -0.1985,  0.1632, -0.0533, -0.2968, -1.0000
1492035555.3288478851,1492035555.3311920166, -0.2047, -0.1985,  0.1632, -0.0533, -0.2968, -1.0000
1492035555.3315589428,1492035555.3338599205, -0.2047, -0.1985,  0.1632, -0.0533, -0.2968, -0.9922
1492035555.3342289925,1492035555.3365330696, -0.2047, -0.1985,  0.1632, -0.0676, -0.3283, -0.9906
1492035555.3369019032,1492035555.3391990662, -0.2047, -0.1985,  0.1632, -0.0676, -0.3283, -0.9906
1492035555.3395678997,1492035555.3418769836, -0.2047, -0.1985,  0.1632, -0.0676, -0.3283, -0.9906
1492035555.3422451019,1492035555.3445529938, -0.2047, -0.1985,  0.1632, -0.0676, -0.3283, -0.9745
1492035555.3449211121,1492035555.3472170830, -0.2358, -0.0697,  0.1865, -0.1482, -0.3468, -0.9745
1492035555.3475859165,1492035555.3498818874, -0.2358, -0.0697,  0.1865, -0.1482, -0.3468, -0.9745
1492035555.3502519131,1492035555.3525540829, -0.2358, -0.0697,  0.1865, -0.1482, -0.3468, -0.9745
1492035555.3529229164,1492035555.3552229404, -0.2358, -0.0697,  0.1865, -0.1482, -0.3762, -0.9964
1492035555.3555920124,1492035555.3578989506, -0.2358, -0.0697,  0.1865, -0.1794, -0.3762, -0.9964
1492035555.3582670689,1492035555.3606278896, -0.2358, -0.0697,  0.1865, -0.1794, -0.3762, -0.9964
1492035555.3609960079,1492035555.3632929325, -0.2358, -0.0697,  0.1865, -0.1794, -0.3762, -0.9964
1492035555.3636610508,1492035555.3659639359, -0.2358, -0.0697,  0.1552, -0.1505, -0.4091, -1.0000
1492035555.3663349152,1492035555.3686330318, -0.3152,  0.0768,  0.1497, -0.1505, -0.4091, -1.0000
1492035555.3690030575,1492035555.3713550568, -0.3152,  0.0768,  0.1497, -0.1505, -0.4091, -1.0000
1492035555.3717229366,1492035555.3740310669, -0.3152,  0.0768,  0.1497, -0.1505, -0.4091, -1.0000
1492035555.3743989468,1492035555.3766949177, -0.3152,  0.0768,  0.1497, -0.1025, -0.4176, -1.0000
1492035555.3770630360,1492035555.3793671131, -0.3152,  0.0768,  0.1497, -0.1025, -0.4176, -1.0000
1492035555.3797349930,1492035555.3820350170, -0.3152,  0.0768,  0.1497, -0.1025, -0.4176, -1.0000
1492035555.3824028969,1492035555.3846950531, -0.3152,  0.0768,  0.1497, -0.1025, -0.4176, -1.0000
1492035555.3850629330,1492035555.3873689175, -0.3267,  0.2206,  0.1173, -0.0539, -0.4397, -0.9999
1492035555.3877379894,1492035555.3900809288, -0.3267,  0.2206,  0.1173, -0.0539, -0.4397, -0.9999
1492035555.3904581070,1492035555.3928859234, -0.3267,  0.2206,  0.1173, -0.0539, -0.4397, -0.9999
1492035555.3932631016,1492035555.3956930637, -0.3267,  0.2206,  0.1173, -0.0539, -0.4397, -0.9999
1492035555.3960680962,1492035555.3984959126, -0.3267,  0.2206,  0.1173,  0.0094, -0.4576, -0.9960
1492035555.3988740444,1492035555.4013190269, -0.3267,  0.2206,  0.1173,  0.0094, -0.4576, -0.9960
1492035555.4016969204,1492035555.4041221142, -0.3267,  0.2206,  0.1173,  0.0094, -0.4576, -0.9960
1492035555.4044981003,1492035555.4069221020, -0.4156,  0.3711, -0.0189,  0.0797, -0.4804, -0.9426
1492035555.4072990417,1492035555.4097299576, -0.4156,  0.3711, -0.0189,  0.0803, -0.4804, -0.9426
1492035555.4101159573,1492035555.4125409126, -0.4156,  0.3711, -0.0189,  0.0803, -0.4804, -0.9426
1492035555.4129168987,1492035555.4153370857, -0.4156,  0.3711, -0.0189,  0.0803, -0.4804, -0.9426
1492035555.4157130718,1492035555.4181458950, -0.4156,  0.3711, -0.0189,  0.0170, -0.4740, -0.8460
1492035555.4185230732,1492035555.4210009575, -0.4156,  0.3711, -0.0189,  0.0170, -0.4740, -0.8460
1492035555.4213800430,1492035555.4238150120, -0.4156,  0.3711, -0.0189,  0.0170, -0.4740, -0.8460
1492035555.4241909981,1492035555.4266140461, -0.7444,  0.6731, -0.1437,  0.0170, -0.4740, -0.7835
1492035555.4269919395,1492035555.4294159412, -0.7444,  0.6731, -0.1437, -0.0630, -0.4431, -0.7863
1492035555.4297919273,1492035555.4321660995, -0.7444,  0.6731, -0.1437, -0.0630, -0.4431, -0.7863
1492035555.4325349331,1492035555.4348289967, -0.7444,  0.6731, -0.1437, -0.0630, -0.4431, -0.7863
1492035555.4351971149,1492035555.4374930859, -0.7444,  0.6731, -0.1437, -0.0630, -0.3708, -0.6595
1492035555.4379749298,1492035555.4402899742, -0.7444,  0.6731, -0.1437, -0.0601, -0.3708, -0.6595
1492035555.4406599998,1492035555.4429619312, -0.7444,  0.6731, -0.1437, -0.0601, -0.3708, -0.6595
1492035555.4433319569,1492035555.4456319809, -0.7444,  0.6731, -0.2168, -0.0601, -0.3708, -0.6595
1492035555.4459989071,1492035555.4483010769, -0.7943,  0.9683, -0.2168, -0.0023, -0.2724, -0.4187
1492035555.4486699104,1492035555.4510691166, -0.7943,  0.9683, -0.2168, -0.0023, -0.2724, -0.4187
1492035555.4514460564,1492035555.4538760185, -0.7943,  0.9683, -0.2168, -0.0023, -0.2724, -0.4187
1492035555.4542551041,1492035555.4566760063, -0.7943,  0.9683, -0.2168, -0.0023, -0.2724, -0.4187
1492035555.4570519924,1492035555.4594769478, -0.7943,  0.9683, -0.2168,  0.0525, -0.1594, -0.2274
1492035555.4598529339,1492035555.4622950554, -0.7943,  0.9683, -0.2168,  0.0525, -0.1594, -0.2274
1492035555.4626729488,1492035555.4650950432, -0.7943,  0.9683, -0.3340,  0.0525, -0.1594, -0.2274
1492035555.4654710293,1492035555.4679019451, -0.4392,  0.9827, -0.3336,  0.0525, -0.1594, -0.0619
1492035555.4682779312,1492035555.4707109928, -0.4392,  0.9827, -0.3336,  0.0226, -0.0340, -0.0619
1492035555.4710860252,1492035555.4735090733, -0.4392,  0.9827, -0.3336,  0.0226, -0.0340, -0.0619
1492035555.4738869667,1492035555.4763219357, -0.4392,  0.9827, -0.3336,  0.0226, -0.0340, -0.0619
1492035555.4766979218,1492035555.4791259766, -0.4392,  0.9827, -0.3336,  0.0471,  0.0573,  0.1004
1492035555.4795019627,1492035555.4819390774, -0.4392,  0.9827, -0.3336,  0.0471,  0.0573,  0.1004
1492035555.4823179245,1492035555.4847509861, -0.4392,  0.9827, -0.3336,  0.0471,  0.0573,  0.1004
1492035555.4851269722,1492035555.4875459671, -0.1333,  0.6669, -0.2404,  0.0471,  0.0573,  0.1004
1492035555.4879229069,1492035555.4903380871, -0.1333,  0.6669, -0.2404,  0.1828,  0.0827,  0.2207
1492035555.4907090664,1492035555.4930100441, -0.1333,  0.6669, -0.2404,  0.1828,  0.0827,  0.2207
1492035555.4933819771,1492035555.4956789017, -0.1333,  0.6669, -0.2404,  0.1828,  0.0827,  0.2207
1492035555.4960479736,1492035555.4983520508, -0.1333,  0.6669, -0.2404,  0.1828,  0.0827,  0.2207
1492035555.4987199306,1492035555.5011010170, -0.1333,  0.6669, -0.2404,  0.3235,  0.0603,  0.2759
1492035555.5014779568,1492035555.5039079189, -0.1333,  0.6669, -0.2404,  0.3235,  0.0603,  0.2759
1492035555.5042839050,1492035555.5067079067, -0.1671,  0.3051, -0.1902,  0.3235,  0.0603,  0.2759
1492035555.5070860386,1492035555.5095069408, -0.1671,  0.3051, -0.1902,  0.3235,  0.0815,  0.2385
1492035555.5098841190,1492035555.5123229027, -0.1671,  0.3051, -0.1902,  0.3759,  0.0815,  0.2385
1492035555.5127010345,1492035555.5151219368, -0.1671,  0.3051, -0.1902,  0.3759,  0.0815,  0.2385
1492035555.5155010223,1492035555.5179240704, -0.1671,  0.3051, -0.1902,  0.3759,  0.0815,  0.2385
1492035555.5183000565,1492035555.5207440853, -0.1671,  0.3051, -0.1902,  0.3681,  0.0688,  0.0157
1492035555.5211200714,1492035555.5235490799, -0.1671,  0.3051, -0.1902,  0.3681,  0.0688,  0.0157
1492035555.5239269733,1492035555.5263500214, -0.1787, -0.0533, -0.2973,  0.3681,  0.0688,  0.0157
1492035555.5267260075,1492035555.5291550159, -0.1787, -0.0533, -0.2973,  0.3681,  0.0688,  0.0157
1492035555.5295300484,1492035555.5319559574, -0.1787, -0.0533, -0.2973,  0.2955,  0.2978,  0.0604
1492035555.5323328972,1492035555.5347590446, -0.1787, -0.0533, -0.2973,  0.2955,  0.2978,  0.0604
1492035555.5351340771,1492035555.5375568867, -0.1787, -0.0533, -0.2973,  0.2955,  0.2978,  0.0604
1492035555.5379331112,1492035555.5403459072, -0.1787, -0.0533, -0.2973,  0.2955, -0.3922,  0.7862
1492035555.5407140255,1492035555.5430209637, -0.1787, -0.0533, -0.2973,  0.0281, -0.3922,  0.7862
1492035555.5433909893,1492035555.5456929207, -0.9998,  0.6534,  0.6392,  0.0281, -0.3922,  0.7862
1492035555.5460619926,1492035555.5483660698, -0.9998,  0.6534,  0.6392,  0.0281, -0.3922,  0.7862
1492035555.5487349033,1492035555.5511229038, -0.9998,  0.6534,  0.6392, -0.1409,  0.0109,  0.5793
1492035555.5515010357,1492035555.5539269447, -0.9998,  0.6534,  0.6392, -0.1409,  0.0109,  0.5793
1492035555.5544140339,1492035555.5568480492, -0.9998,  0.6534,  0.6392, -0.1409,  0.0109,  0.5793
1492035555.5572218895,1492035555.5596449375, -0.9998,  0.6534,  0.6392, -0.1409,  0.0109,  0.5793
1492035555.5600330830,1492035555.5624530315, -0.9998,  0.6534,  0.6392, -0.1638,  0.2751,  0.1593
1492035555.5628290176,1492035555.5652570724, -0.2029,  0.3336, -0.5069, -0.1638,  0.2751,  0.1593
1492035555.5656309128,1492035555.5680549145, -0.1995,  0.3336, -0.5069, -0.1638,  0.2751,  0.1593
1492035555.5684309006,1492035555.5708699226, -0.1995,  0.3336, -0.5069, -0.1638,  0.2751,  0.9212
1492035555.5712440014,1492035555.5736749172, -0.1995,  0.3336, -0.5069, -0.2058,  0.6625,  0.9212
1492035555.5740499496,1492035555.5764729977, -0.1995,  0.3336, -0.5069, -0.2058,  0.6625,  0.9212
1492035555.5768470764,1492035555.5792770386, -0.1995,  0.3336, -0.5069, -0.2058,  0.6625,  0.9212
1492035555.5796511173,1492035555.5820879936, -0.1995,  0.3336, -0.5069, -0.0402,  0.8803,  0.9900
1492035555.5824639797,1492035555.5848889351, -0.1995,  0.0895, -0.2621, -0.0402,  0.8803,  0.9900
1492035555.5852649212,1492035555.5876970291,  0.2629,  0.0895, -0.2621, -0.0402,  0.8803,  0.9900
1492035555.5880761147,1492035555.5904901028,  0.2629,  0.0895, -0.2621, -0.0402,  0.8803,  0.9900
1492035555.5908620358,1492035555.5931570530,  0.2629,  0.0895, -0.2621,  0.3503,  0.1027,  0.7815
1492035555.5935258865,1492035555.5958271027,  0.2629,  0.0895, -0.2621,  0.3503,  0.1027,  0.7815
1492035555.5961949825,1492035555.5984909534,  0.2629,  0.0895, -0.2621,  0.3503,  0.1027,  0.7815
1492035555.5988590717,1492035555.6012840271,  0.2629,  0.0895, -0.2621,  0.3503,  0.1027,  0.7815
1492035555.6016609669,1492035555.6040859222,  0.2629,  0.0895,  0.0044,  0.1423, -0.4533,  0.2847
1492035555.6044631004,1492035555.6068849564, -0.2313,  0.2199,  0.0044,  0.1423, -0.4533,  0.2847
1492035555.6072599888,1492035555.6096889973, -0.2313,  0.2199,  0.0044,  0.1423, -0.4533,  0.2847
1492035555.6100730896,1492035555.6124958992, -0.2313,  0.2199,  0.0044,  0.1423, -0.1418,  0.0218
1492035555.6128759384,1492035555.6152970791, -0.2313,  0.2199,  0.0044,  0.1855, -0.1418,  0.0218
1492035555.6156730652,1492035555.6181049347, -0.2313,  0.2199,  0.0044,  0.1855, -0.1418,  0.0218
1492035555.6184830666,1492035555.6209189892, -0.2313,  0.2199,  0.0044,  0.1855, -0.1418,  0.0218
1492035555.6212980747,1492035555.6237230301, -0.2313,  0.2199,  0.0122,  0.4141, -0.0302,  0.1338
1492035555.6240990162,1492035555.6265189648, -0.3094,  0.1809,  0.0143,  0.4141, -0.0302,  0.1338
1492035555.6268949509,1492035555.6293230057, -0.3094,  0.1809,  0.0143,  0.4141, -0.0302,  0.1338
1492035555.6296980381,1492035555.6321380138, -0.3094,  0.1809,  0.0143,  0.4141, -0.0302,  0.1338
1492035555.6325190067,1492035555.6349430084, -0.3094,  0.1809,  0.0143,  0.4402,  0.0963,  0.0984
1492035555.6353189945,1492035555.6377389431, -0.3094,  0.1809,  0.0143,  0.4402,  0.0963,  0.0984
1492035555.6381139755,1492035555.6405160427, -0.3094,  0.1809,  0.0143,  0.4402,  0.0963,  0.0984
1492035555.6408870220,1492035555.6431839466, -0.3094,  0.1809,  0.0143,  0.4402,  0.1197,  0.0132
1492035555.6435539722,1492035555.6458570957, -0.5320,  0.0216,  0.0504,  0.3684,  0.1204,  0.0132
1492035555.6462249756,1492035555.6485219002, -0.5320,  0.0216,  0.0504,  0.3684,  0.1204,  0.0132
1492035555.6488909721,1492035555.6512789726, -0.5320,  0.0216,  0.0504,  0.3684,  0.1204,  0.0132
1492035555.6516559124,1492035555.6540889740, -0.5320,  0.0216,  0.0504,  0.2582,  0.1962, -0.0363
1492035555.6544659138,1492035555.6568870544, -0.5320,  0.0216,  0.0504,  0.2582,  0.1962, -0.0363
1492035555.6572620869,1492035555.6602890491, -0.5320,  0.0216,  0.0504,  0.2582,  0.1962, -0.0363
1492035555.6606640816,1492035555.6629660130, -0.5320,  0.0216,  0.0504,  0.2582,  0.1962, -0.0363
1492035555.6633369923,1492035555.6656320095, -0.6757, -0.0502,  0.1522,  0.1273,  0.2363,  0.1741
1492035555.6659998894,1492035555.6682939529, -0.6757, -0.0502,  0.1522,  0.1273,  0.2363,  0.1741
1492035555.6686620712,1492035555.6709969044, -0.6757, -0.0502,  0.1522,  0.1273,  0.2363,  0.1741
1492035555.6714859009,1492035555.6737780571, -0.6757, -0.0502,  0.1522,  0.1273,  0.2363,  0.2630
1492035555.6741459370,1492035555.6764431000, -0.6757, -0.0502,  0.1522,  0.0446,  0.1840,  0.2630
1492035555.6768119335,1492035555.6790969372, -0.6757, -0.0502,  0.1522,  0.0446,  0.1840,  0.2630
1492035555.6794660091,1492035555.6817960739, -0.6757, -0.0502,  0.1522,  0.0446,  0.1840,  0.2630
1492035555.6821660995,1492035555.6844630241, -0.5025, -0.3403,  0.4339,  0.0446,  0.1938,  0.1829
1492035555.6848320961,1492035555.6871230602, -0.5025, -0.3403,  0.4339, -0.0525,  0.1938,  0.1829
1492035555.6874930859,1492035555.6897869110, -0.5025, -0.3403,  0.4339, -0.0525,  0.1938,  0.1829
1492035555.6901679039,1492035555.6924760342, -0.5025, -0.3403,  0.4339, -0.0525,  0.1938,  0.1829
1492035555.6928451061,1492035555.6951470375, -0.5025, -0.3403,  0.4339, -0.0423,  0.1962,  0.0969
1492035555.6955161095,1492035555.6978189945, -0.5025, -0.3403,  0.4339, -0.0423,  0.1962,  0.0969
1492035555.6981871128,1492035555.7004950047, -0.5025, -0.3403,  0.4339, -0.0423,  0.1962,  0.0969
