timestamp_before,timestamp_after,accel_x,accel_y,accel_z,gyro_x,gyro_y,gryo_z
1492035718.6827600002,1492035718.6853299141, -0.2065,  0.0334, -0.0084, -0.0160,  0.0073, -0.0696
1492035718.6857829094,1492035718.6880850792, -0.2087,  0.0308,  0.0051, -0.0160,  0.0073, -0.0696
1492035718.6884570122,1492035718.6908431053, -0.2087,  0.0308,  0.0051, -0.0160,  0.0073, -0.0616
1492035718.6912140846,1492035718.6935119629, -0.2087,  0.0308,  0.0051, -0.0045,  0.0086, -0.0616
1492035718.6938829422,1492035718.6961870193, -0.2087,  0.0308,  0.0051, -0.0045,  0.0086, -0.0616
1492035718.6965560913,1492035718.6988549232, -0.2087,  0.0308,  0.0051, -0.0045,  0.0086, -0.0616
1492035718.6992249489,1492035718.7017030716, -0.2087,  0.0308,  0.0051, -0.0045,  0.0111, -0.0487
1492035718.7020750046,1492035718.7043728828, -0.2087,  0.0308,  0.0051,  0.0064,  0.0111, -0.0487
1492035718.7047450542,1492035718.7070438862, -0.2000,  0.0363, -0.0101,  0.0064,  0.0111, -0.0487
1492035718.7074139118,1492035718.7097070217, -0.2000,  0.0363, -0.0101,  0.0064,  0.0111, -0.0487
1492035718.7102069855,1492035718.7125110626, -0.2000,  0.0363, -0.0101,  0.0156,  0.0134, -0.0420
1492035718.7128810883,1492035718.7151799202, -0.2000,  0.0363, -0.0101,  0.0156,  0.0134, -0.0420
1492035718.7155480385,1492035718.7178509235, -0.2000,  0.0363, -0.0101,  0.0156,  0.0134, -0.0420
1492035718.7182219028,1492035718.7205269337, -0.2000,  0.0363, -0.0101,  0.0156,  0.0134, -0.0420
1492035718.7208960056,1492035718.7231960297, -0.2000,  0.0363, -0.0101,  0.0266,  0.0163, -0.0401
1492035718.7235639095,1492035718.7258648872, -0.2000,  0.0519, -0.0081,  0.0266,  0.0163, -0.0401
1492035718.7262339592,1492035718.7285289764, -0.2050,  0.0497, -0.0081,  0.0266,  0.0163, -0.0401
1492035718.7288980484,1492035718.7312920094, -0.2050,  0.0497, -0.0081,  0.0266,  0.0163, -0.0401
1492035718.7316689491,1492035718.7341001034, -0.2050,  0.0497, -0.0081,  0.0367,  0.0174, -0.0348
1492035718.7344770432,1492035718.7369000912, -0.2050,  0.0497, -0.0081,  0.0367,  0.0174, -0.0348
1492035718.7372748852,1492035718.7397038937, -0.2050,  0.0497, -0.0081,  0.0367,  0.0174, -0.0348
1492035718.7400910854,1492035718.7425179482, -0.2050,  0.0497, -0.0081,  0.0367,  0.0174, -0.0240
1492035718.7428970337,1492035718.7453210354, -0.2050,  0.0497,  0.0218,  0.0454,  0.0163, -0.0240
1492035718.7456960678,1492035718.7481269836, -0.2006,  0.0834,  0.0218,  0.0454,  0.0163, -0.0240
1492035718.7485029697,1492035718.7509419918, -0.2006,  0.0834,  0.0218,  0.0454,  0.0163, -0.0240
1492035718.7513198853,1492035718.7537479401, -0.2006,  0.0834,  0.0218,  0.0840,  0.0146, -0.0051
1492035718.7541251183,1492035718.7565610409, -0.2006,  0.0834,  0.0218,  0.0840,  0.0146, -0.0051
1492035718.7569379807,1492035718.7593669891, -0.2006,  0.0834,  0.0218,  0.0840,  0.0146, -0.0051
1492035718.7597429752,1492035718.7620871067, -0.2006,  0.0834,  0.0218,  0.0840,  0.0146, -0.0051
1492035718.7624580860,1492035718.7647619247, -0.2006,  0.0834,  0.0218,  0.1522,  0.0395,  0.0395
1492035718.7651309967,1492035718.7675540447, -0.2509,  0.2133, -0.0605,  0.1522,  0.0395,  0.0395
1492035718.7679240704,1492035718.7702710629, -0.2509,  0.2133, -0.0605,  0.1522,  0.0395,  0.0395
1492035718.7706470490,1492035718.7730610371, -0.2509,  0.2133, -0.0605,  0.1522,  0.0395,  0.0551
1492035718.7734370232,1492035718.7758429050, -0.2509,  0.2133, -0.0605,  0.1764,  0.0579,  0.0574
1492035718.7762179375,1492035718.7786259651, -0.2509,  0.2133, -0.0605,  0.1764,  0.0579,  0.0574
1492035718.7790000439,1492035718.7814209461, -0.2509,  0.2133, -0.0605,  0.1764,  0.0579,  0.0574
1492035718.7817978859,1492035718.7842080593, -0.2509,  0.2133, -0.0605,  0.1685,  0.0684,  0.0642
1492035718.7845818996,1492035718.7869949341, -0.2428,  0.1747, -0.0639,  0.1705,  0.0684,  0.0642
1492035718.7873699665,1492035718.7897810936, -0.2428,  0.1747, -0.0639,  0.1705,  0.0684,  0.0642
1492035718.7901630402,1492035718.7925779819, -0.2428,  0.1747, -0.0639,  0.1705,  0.0684,  0.0642
1492035718.7929530144,1492035718.7953650951, -0.2428,  0.1747, -0.0639,  0.1602,  0.0787,  0.0753
1492035718.7957379818,1492035718.7981491089, -0.2428,  0.1747, -0.0639,  0.1602,  0.0787,  0.0753
1492035718.7986800671,1492035718.8016889095, -0.2428,  0.1747, -0.0639,  0.1602,  0.0787,  0.0753
1492035718.8020639420,1492035718.8043580055, -0.2428,  0.1747, -0.0639,  0.1602,  0.0865,  0.0940
1492035718.8047270775,1492035718.8070280552, -0.1976,  0.0980, -0.0587,  0.1648,  0.0900,  0.0940
1492035718.8073990345,1492035718.8096990585, -0.1976,  0.0980, -0.0587,  0.1648,  0.0900,  0.0940
1492035718.8101899624,1492035718.8124880791, -0.1976,  0.0980, -0.0587,  0.1648,  0.0900,  0.0940
1492035718.8128569126,1492035718.8151578903, -0.1976,  0.0980, -0.0587,  0.1436,  0.0931,  0.1132
1492035718.8155269623,1492035718.8178200722, -0.1976,  0.0980, -0.0587,  0.1436,  0.0931,  0.1132
1492035718.8181900978,1492035718.8206009865, -0.1976,  0.0980, -0.0587,  0.1436,  0.0931,  0.1132
1492035718.8209719658,1492035718.8232729435, -0.1976,  0.0980, -0.0587,  0.1436,  0.0931,  0.1132
1492035718.8236429691,1492035718.8259410858, -0.1758,  0.0210, -0.0298,  0.1128,  0.0916,  0.1210
1492035718.8263111115,1492035718.8286149502, -0.1758,  0.0210, -0.0298,  0.1128,  0.0916,  0.1210
1492035718.8289849758,1492035718.8312909603, -0.1758,  0.0210, -0.0298,  0.1128,  0.0916,  0.1210
1492035718.8316619396,1492035718.8339591026, -0.1758,  0.0210, -0.0298,  0.1128,  0.0916,  0.1210
1492035718.8343300819,1492035718.8366289139, -0.1758,  0.0210, -0.0298,  0.0849,  0.0915,  0.1258
1492035718.8369989395,1492035718.8392899036, -0.1758,  0.0210, -0.0298,  0.0849,  0.0915,  0.1258
1492035718.8396580219,1492035718.8420989513, -0.1758,  0.0210, -0.0298,  0.0849,  0.0915,  0.1258
1492035718.8424758911,1492035718.8449029922, -0.1758, -0.0219, -0.0102,  0.0849,  0.0915,  0.1258
1492035718.8452808857,1492035718.8477048874, -0.1336, -0.0219, -0.0102,  0.0662,  0.0823,  0.1209
1492035718.8480849266,1492035718.8505229950, -0.1336, -0.0219, -0.0102,  0.0662,  0.0823,  0.1209
1492035718.8509008884,1492035718.8533289433, -0.1336, -0.0219, -0.0102,  0.0662,  0.0823,  0.1209
1492035718.8537049294,1492035718.8561289310, -0.1336, -0.0219, -0.0102,  0.0662,  0.0697,  0.0533
1492035718.8565080166,1492035718.8589329720, -0.1336, -0.0219, -0.0102,  0.0442,  0.0697,  0.0533
1492035718.8593080044,1492035718.8617510796, -0.1336, -0.0219, -0.0102,  0.0442,  0.0697,  0.0533
1492035718.8621270657,1492035718.8645429611, -0.1336, -0.3812,  0.1506,  0.0442,  0.0697,  0.0533
1492035718.8649139404,1492035718.8672189713, -0.0407, -0.3758,  0.1506, -0.1694,  0.0436, -0.0319
1492035718.8675889969,1492035718.8698880672, -0.0407, -0.3758,  0.1506, -0.1694,  0.0436, -0.0319
1492035718.8702549934,1492035718.8725590706, -0.0407, -0.3758,  0.1506, -0.1694,  0.0436, -0.0319
1492035718.8729269505,1492035718.8752241135, -0.0407, -0.3758,  0.1506, -0.1694,  0.0436, -0.0319
1492035718.8755919933,1492035718.8778920174, -0.0407, -0.3758,  0.1506, -0.2657, -0.0394,  0.1126
1492035718.8782589436,1492035718.8807768822, -0.0407, -0.3758,  0.1506, -0.2657, -0.0394,  0.1126
1492035718.8811550140,1492035718.8835470676, -0.0407, -0.3758,  0.1506, -0.2657, -0.0394,  0.1126
1492035718.8839209080,1492035718.8864030838, -0.1310,  0.0233,  0.0027, -0.2657, -0.0394,  0.0622
1492035718.8867790699,1492035718.8891649246, -0.1310,  0.0233,  0.0027, -0.1501, -0.0212,  0.0622
1492035718.8903439045,1492035718.8927760124, -0.1310,  0.0233,  0.0027, -0.1501, -0.0212,  0.0622
1492035718.8931560516,1492035718.8955790997, -0.1310,  0.0233,  0.0027, -0.1501, -0.0212,  0.0622
1492035718.8959589005,1492035718.8983819485, -0.1310,  0.0233,  0.0027, -0.1994, -0.0135, -0.0475
1492035718.8987579346,1492035718.9011669159, -0.1310,  0.0233,  0.0027, -0.1994, -0.0135, -0.0475
1492035718.9015359879,1492035718.9038360119, -0.1310,  0.0233,  0.1389, -0.1994, -0.0135, -0.0475
1492035718.9042029381,1492035718.9065001011, -0.1939, -0.1120,  0.1389, -0.1994, -0.0135, -0.0475
1492035718.9068698883,1492035718.9091699123, -0.1939, -0.1120,  0.1389, -0.0885, -0.0309, -0.0952
1492035718.9095399380,1492035718.9119520187, -0.1939, -0.1120,  0.1389, -0.0885, -0.0309, -0.0952
1492035718.9124619961,1492035718.9148850441, -0.1939, -0.1120,  0.1389, -0.0885, -0.0309, -0.0952
1492035718.9152619839,1492035718.9176890850, -0.1939, -0.1120,  0.1389, -0.0885, -0.0543, -0.0699
1492035718.9180660248,1492035718.9204819202, -0.1939, -0.1120,  0.1389,  0.0083, -0.0524, -0.0699
1492035718.9208528996,1492035718.9231550694, -0.1939, -0.1120,  0.1389,  0.0083, -0.0524, -0.0699
1492035718.9235250950,1492035718.9258270264, -0.2358,  0.1986,  0.0134,  0.0083, -0.0524, -0.0699
1492035718.9261970520,1492035718.9285008907, -0.2358,  0.1986,  0.0134, -0.0410, -0.0423, -0.0125
1492035718.9288699627,1492035718.9312169552, -0.2358,  0.1986,  0.0134, -0.0410, -0.0423, -0.0125
1492035718.9315860271,1492035718.9338850975, -0.2358,  0.1986,  0.0134, -0.0410, -0.0423, -0.0125
1492035718.9342548847,1492035718.9365561008, -0.2358,  0.1986,  0.0134, -0.0410, -0.0423, -0.0125
1492035718.9369239807,1492035718.9392271042, -0.2358,  0.1986,  0.0134, -0.0214, -0.0228, -0.0561
1492035718.9395949841,1492035718.9420681000, -0.2358,  0.1986,  0.0134, -0.0214, -0.0228, -0.0561
1492035718.9424390793,1492035718.9447419643, -0.1586,  0.0752,  0.0087, -0.0214, -0.0228, -0.0561
1492035718.9451100826,1492035718.9474120140, -0.1586,  0.0752,  0.0087, -0.0214, -0.0228, -0.0561
1492035718.9477810860,1492035718.9504148960, -0.1586,  0.0752,  0.0087, -0.0016, -0.0144, -0.0810
1492035718.9507989883,1492035718.9532370567, -0.1586,  0.0752,  0.0087, -0.0016, -0.0144, -0.0810
1492035718.9536170959,1492035718.9560420513, -0.1586,  0.0752,  0.0087, -0.0016, -0.0144, -0.0810
1492035718.9564220905,1492035718.9588479996, -0.1586,  0.0752,  0.0087, -0.0016, -0.0300, -0.0954
1492035718.9592258930,1492035718.9616699219, -0.1586,  0.0752,  0.0087,  0.0130, -0.0290, -0.0954
1492035718.9620480537,1492035718.9644739628, -0.1827, -0.0042, -0.0084,  0.0130, -0.0290, -0.0954
1492035718.9648530483,1492035718.9672820568, -0.1827, -0.0042, -0.0084,  0.0130, -0.0290, -0.0954
1492035718.9676599503,1492035718.9700970650, -0.1827, -0.0042, -0.0084,  0.0206, -0.0368, -0.0945
1492035718.9704680443,1492035718.9727680683, -0.1827, -0.0042, -0.0084,  0.0206, -0.0368, -0.0945
1492035718.9731369019,1492035718.9754350185, -0.1827, -0.0042, -0.0084,  0.0206, -0.0368, -0.0945
1492035718.9758050442,1492035718.9781029224, -0.1827, -0.0042, -0.0084,  0.0206, -0.0368, -0.0945
1492035718.9784739017,1492035718.9808499813, -0.1827, -0.0042, -0.0084,  0.0016, -0.0373, -0.0867
1492035718.9812269211,1492035718.9836208820, -0.1827,  0.0063,  0.0027,  0.0016, -0.0373, -0.0867
1492035718.9839990139,1492035718.9863910675, -0.1910,  0.0063,  0.0027,  0.0016, -0.0373, -0.0867
1492035718.9867660999,1492035718.9891569614, -0.1910,  0.0063,  0.0027,  0.0016, -0.0373, -0.0867
1492035718.9895329475,1492035718.9919650555, -0.1910,  0.0063,  0.0027, -0.0325, -0.0422, -0.0913
1492035718.9923450947,1492035718.9947679043, -0.1910,  0.0063,  0.0027, -0.0325, -0.0422, -0.0913
1492035718.9951450825,1492035718.9975700378, -0.1910,  0.0063,  0.0027, -0.0325, -0.0422, -0.0913
1492035718.9979450703,1492035719.0004100800, -0.1910,  0.0063,  0.0027, -0.0481, -0.0405, -0.0921
1492035719.0007829666,1492035719.0030829906, -0.1910,  0.0297, -0.0137, -0.0483, -0.0405, -0.0921
1492035719.0034530163,1492035719.0057570934, -0.1831,  0.0312, -0.0137, -0.0483, -0.0405, -0.0921
1492035719.0062329769,1492035719.0085289478, -0.1831,  0.0312, -0.0137, -0.0483, -0.0405, -0.0921
1492035719.0088980198,1492035719.0112860203, -0.1831,  0.0312, -0.0137, -0.0623, -0.0373, -0.0774
1492035719.0116620064,1492035719.0140869617, -0.1831,  0.0312, -0.0137, -0.0623, -0.0373, -0.0774
1492035719.0144650936,1492035719.0168960094, -0.1831,  0.0312, -0.0137, -0.0623, -0.0373, -0.0774
1492035719.0172719955,1492035719.0197019577, -0.1831,  0.0312, -0.0137, -0.0623, -0.0373, -0.0774
1492035719.0200879574,1492035719.0225110054, -0.1831,  0.0312,  0.0098, -0.0622, -0.0360, -0.0629
1492035719.0228888988,1492035719.0253160000, -0.1758,  0.0218,  0.0100, -0.0622, -0.0360, -0.0629
1492035719.0256969929,1492035719.0281250477, -0.1758,  0.0218,  0.0100, -0.0622, -0.0360, -0.0629
1492035719.0286200047,1492035719.0310549736, -0.1758,  0.0218,  0.0100, -0.0622, -0.0353, -0.0532
1492035719.0314309597,1492035719.0338599682, -0.1758,  0.0218,  0.0100, -0.0664, -0.0353, -0.0532
1492035719.0342381001,1492035719.0366649628, -0.1758,  0.0218,  0.0100, -0.0664, -0.0353, -0.0532
1492035719.0370419025,1492035719.0394699574, -0.1758,  0.0218,  0.0100, -0.0664, -0.0353, -0.0532
1492035719.0398459435,1492035719.0421679020, -0.1758,  0.0218,  0.0022, -0.0668, -0.0347, -0.0461
1492035719.0425388813,1492035719.0448350906, -0.2007,  0.0563,  0.0041, -0.0668, -0.0347, -0.0461
1492035719.0452051163,1492035719.0475010872, -0.2007,  0.0563,  0.0041, -0.0668, -0.0347, -0.0461
1492035719.0478689671,1492035719.0503499508, -0.2007,  0.0563,  0.0041, -0.0668, -0.0347, -0.0461
1492035719.0507180691,1492035719.0530219078, -0.2007,  0.0563,  0.0041, -0.0620, -0.0244, -0.0421
1492035719.0533909798,1492035719.0557029247, -0.2007,  0.0563,  0.0041, -0.0620, -0.0244, -0.0421
1492035719.0560719967,1492035719.0583689213, -0.2007,  0.0563,  0.0041, -0.0620, -0.0244, -0.0421
1492035719.0587389469,1492035719.0611829758, -0.2007,  0.0563,  0.0041, -0.0620, -0.0244, -0.0264
1492035719.0615580082,1492035719.0639779568, -0.2254,  0.0103,  0.0214, -0.0591, -0.0167, -0.0296
1492035719.0643529892,1492035719.0667650700, -0.2254,  0.0103,  0.0214, -0.0591, -0.0167, -0.0296
1492035719.0671410561,1492035719.0695509911, -0.2254,  0.0103,  0.0214, -0.0591, -0.0167, -0.0296
1492035719.0699260235,1492035719.0723469257, -0.2254,  0.0103,  0.0214, -0.0513, -0.0182, -0.0210
1492035719.0727210045,1492035719.0751380920, -0.2254,  0.0103,  0.0214, -0.0486, -0.0182, -0.0210
1492035719.0755119324,1492035719.0779280663, -0.2254,  0.0103,  0.0214, -0.0486, -0.0182, -0.0210
1492035719.0783040524,1492035719.0807280540, -0.2254,  0.0103,  0.0214, -0.0486, -0.0182, -0.0210
1492035719.0811040401,1492035719.0834970474, -0.2289, -0.0281,  0.0511, -0.0341, -0.0167, -0.0132
1492035719.0838689804,1492035719.0862638950, -0.2289, -0.0281,  0.0511, -0.0341, -0.0167, -0.0132
1492035719.0866370201,1492035719.0890290737, -0.2289, -0.0281,  0.0511, -0.0341, -0.0167, -0.0132
1492035719.0894019604,1492035719.0918679237, -0.2289, -0.0281,  0.0511, -0.0341, -0.0167, -0.0132
1492035719.0922429562,1492035719.0946629047, -0.2289, -0.0281,  0.0511, -0.0229, -0.0134, -0.0083
1492035719.0950379372,1492035719.0974490643, -0.2289, -0.0281,  0.0511, -0.0229, -0.0134, -0.0083
1492035719.0978260040,1492035719.1002480984, -0.2289, -0.0281,  0.0511, -0.0229, -0.0134, -0.0083
1492035719.1006190777,1492035719.1029210091, -0.2069,  0.0299,  0.0174, -0.0229, -0.0062, -0.0026
1492035719.1032929420,1492035719.1055920124, -0.2069,  0.0299,  0.0174, -0.0193, -0.0062, -0.0026
1492035719.1059620380,1492035719.1082789898, -0.2069,  0.0299,  0.0174, -0.0193, -0.0062, -0.0026
1492035719.1086521149,1492035719.1110570431, -0.2069,  0.0299,  0.0174, -0.0193, -0.0062, -0.0026
1492035719.1114349365,1492035719.1138598919, -0.2069,  0.0299,  0.0174, -0.0103,  0.0018, -0.0038
1492035719.1142380238,1492035719.1166660786, -0.2069,  0.0299,  0.0174, -0.0103,  0.0018, -0.0038
1492035719.1170439720,1492035719.1194660664, -0.2069,  0.0299,  0.0174, -0.0103,  0.0018, -0.0038
1492035719.1198430061,1492035719.1222839355, -0.2069,  0.0256,  0.0265, -0.0103,  0.0018, -0.0038
1492035719.1226620674,1492035719.1250820160, -0.1865,  0.0256,  0.0265, -0.0016,  0.0056, -0.0074
1492035719.1254611015,1492035719.1278860569, -0.1865,  0.0256,  0.0265, -0.0016,  0.0056, -0.0074
1492035719.1282670498,1492035719.1307029724, -0.1865,  0.0256,  0.0265, -0.0016,  0.0056, -0.0074
1492035719.1310799122,1492035719.1335051060, -0.1865,  0.0256,  0.0265, -0.0016,  0.0056, -0.0103
1492035719.1338839531,1492035719.1363110542, -0.1865,  0.0256,  0.0265,  0.0025,  0.0154, -0.0103
1492035719.1366879940,1492035719.1391189098, -0.1865,  0.0256,  0.0265,  0.0025,  0.0154, -0.0103
1492035719.1394960880,1492035719.1419279575, -0.1865,  0.0387,  0.0143,  0.0025,  0.0154, -0.0103
1492035719.1423039436,1492035719.1447319984, -0.1838,  0.0387,  0.0143,  0.0096,  0.0216, -0.0090
1492035719.1452269554,1492035719.1476509571, -0.1838,  0.0387,  0.0143,  0.0096,  0.0216, -0.0090
1492035719.1480278969,1492035719.1504449844, -0.1838,  0.0387,  0.0143,  0.0096,  0.0216, -0.0090
1492035719.1508150101,1492035719.1531200409, -0.1838,  0.0387,  0.0143,  0.0096,  0.0216, -0.0090
1492035719.1534919739,1492035719.1557879448, -0.1838,  0.0387,  0.0143,  0.0159,  0.0238, -0.0102
1492035719.1561579704,1492035719.1584589481, -0.1838,  0.0387,  0.0143,  0.0159,  0.0238, -0.0102
1492035719.1588270664,1492035719.1612439156, -0.1838,  0.0387,  0.0048,  0.0159,  0.0238, -0.0102
1492035719.1616210938,1492035719.1640379429, -0.1889,  0.0308,  0.0048,  0.0159,  0.0238, -0.0102
1492035719.1644129753,1492035719.1668291092, -0.1889,  0.0308,  0.0048,  0.0190,  0.0257, -0.0105
1492035719.1672070026,1492035719.1696219444, -0.1889,  0.0308,  0.0048,  0.0190,  0.0257, -0.0105
1492035719.1700079441,1492035719.1724181175, -0.1889,  0.0308,  0.0048,  0.0190,  0.0257, -0.0105
1492035719.1727929115,1492035719.1752109528, -0.1889,  0.0308,  0.0048,  0.0190,  0.0259, -0.0081
1492035719.1755900383,1492035719.1779930592, -0.1889,  0.0308,  0.0048,  0.0188,  0.0259, -0.0081
1492035719.1783699989,1492035719.1808249950, -0.1889,  0.0308,  0.0126,  0.0188,  0.0259, -0.0081
1492035719.1812000275,1492035719.1836171150, -0.1808,  0.0216,  0.0118,  0.0188,  0.0259, -0.0081
1492035719.1839940548,1492035719.1864058971, -0.1808,  0.0216,  0.0118,  0.0172,  0.0250, -0.0051
1492035719.1867849827,1492035719.1892039776, -0.1808,  0.0216,  0.0118,  0.0172,  0.0250, -0.0051
1492035719.1895809174,1492035719.1920309067, -0.1808,  0.0216,  0.0118,  0.0172,  0.0250, -0.0051
1492035719.1924090385,1492035719.1948199272, -0.1808,  0.0216,  0.0118,  0.0172,  0.0250, -0.0051
1492035719.1951980591,1492035719.1976180077, -0.1808,  0.0216,  0.0118,  0.0117,  0.0243, -0.0019
1492035719.1979959011,1492035719.2004768848, -0.1808,  0.0216,  0.0118,  0.0117,  0.0243, -0.0019
1492035719.2008481026,1492035719.2031459808, -0.1842,  0.0190,  0.0175,  0.0117,  0.0243, -0.0019
1492035719.2035150528,1492035719.2058210373, -0.1842,  0.0190,  0.0175,  0.0117,  0.0239,  0.0023
1492035719.2061910629,1492035719.2085180283, -0.1842,  0.0190,  0.0175,  0.0056,  0.0239,  0.0023
1492035719.2088890076,1492035719.2112410069, -0.1842,  0.0190,  0.0175,  0.0056,  0.0239,  0.0023
1492035719.2116100788,1492035719.2139129639, -0.1842,  0.0190,  0.0175,  0.0056,  0.0239,  0.0023
1492035719.2142829895,1492035719.2165861130, -0.1842,  0.0190,  0.0175,  0.0001,  0.0258,  0.0052
1492035719.2169549465,1492035719.2192571163, -0.1842,  0.0190,  0.0175,  0.0001,  0.0258,  0.0052
1492035719.2196269035,1492035719.2220780849, -0.1875,  0.0371,  0.0158,  0.0001,  0.0258,  0.0052
1492035719.2224550247,1492035719.2248771191, -0.1875,  0.0371,  0.0158,  0.0001,  0.0258,  0.0052
1492035719.2252519131,1492035719.2276780605, -0.1875,  0.0371,  0.0158, -0.0028,  0.0287,  0.0060
1492035719.2280559540,1492035719.2304849625, -0.1875,  0.0371,  0.0158, -0.0028,  0.0287,  0.0060
1492035719.2308630943,1492035719.2332971096, -0.1875,  0.0371,  0.0158, -0.0028,  0.0287,  0.0060
1492035719.2336750031,1492035719.2360970974, -0.1875,  0.0371,  0.0158, -0.0028,  0.0287,  0.0060
1492035719.2364740372,1492035719.2388949394, -0.1875,  0.0371,  0.0158, -0.0027,  0.0302,  0.0037
1492035719.2392740250,1492035719.2417199612, -0.1815,  0.0355,  0.0088, -0.0027,  0.0302,  0.0037
1492035719.2420980930,1492035719.2445209026, -0.1815,  0.0355,  0.0088, -0.0027,  0.0302,  0.0037
1492035719.2448980808,1492035719.2473158836, -0.1815,  0.0355,  0.0088, -0.0027,  0.0282,  0.0023
1492035719.2476940155,1492035719.2501339912, -0.1815,  0.0355,  0.0088, -0.0004,  0.0282,  0.0023
1492035719.2505021095,1492035719.2527990341, -0.1815,  0.0355,  0.0088, -0.0004,  0.0282,  0.0023
1492035719.2531690598,1492035719.2554678917, -0.1815,  0.0355,  0.0088, -0.0004,  0.0282,  0.0023
1492035719.2558379173,1492035719.2581360340, -0.1815,  0.0355,  0.0088, -0.0041,  0.0273,  0.0030
1492035719.2585051060,1492035719.2608969212, -0.1815,  0.0303,  0.0026, -0.0041,  0.0273,  0.0030
1492035719.2613871098,1492035719.2638180256, -0.1826,  0.0303,  0.0026, -0.0041,  0.0273,  0.0030
1492035719.2641949654,1492035719.2666170597, -0.1826,  0.0303,  0.0026, -0.0041,  0.0273,  0.0030
1492035719.2669909000,1492035719.2694160938, -0.1826,  0.0303,  0.0026, -0.0042,  0.0264,  0.0023
1492035719.2697939873,1492035719.2722311020, -0.1826,  0.0303,  0.0026, -0.0042,  0.0264,  0.0023
1492035719.2726080418,1492035719.2750298977, -0.1826,  0.0303,  0.0026, -0.0042,  0.0264,  0.0023
1492035719.2754080296,1492035719.2778348923, -0.1826,  0.0303,  0.0026, -0.0042,  0.0264,  0.0022
1492035719.2782130241,1492035719.2806499004, -0.1826,  0.0293, -0.0000, -0.0097,  0.0251,  0.0022
1492035719.2810270786,1492035719.2834470272, -0.1870,  0.0293, -0.0000, -0.0097,  0.0251,  0.0022
1492035719.2838239670,1492035719.2862539291, -0.1870,  0.0293, -0.0000, -0.0097,  0.0251,  0.0022
1492035719.2866320610,1492035719.2890551090, -0.1870,  0.0293, -0.0000, -0.0154,  0.0245,  0.0005
1492035719.2894310951,1492035719.2918679714, -0.1870,  0.0293, -0.0000, -0.0154,  0.0245,  0.0005
1492035719.2922430038,1492035719.2946720123, -0.1870,  0.0293, -0.0000, -0.0154,  0.0245,  0.0005
1492035719.2950470448,1492035719.2974710464, -0.1870,  0.0293, -0.0000, -0.0154,  0.0245,  0.0005
1492035719.2978489399,1492035719.3002789021, -0.1870,  0.0329,  0.0031, -0.0137,  0.0243,  0.0001
1492035719.3006479740,1492035719.3029460907, -0.1861,  0.0329,  0.0031, -0.0137,  0.0243,  0.0001
1492035719.3033161163,1492035719.3056149483, -0.1861,  0.0329,  0.0031, -0.0137,  0.0243,  0.0001
1492035719.3059849739,1492035719.3082931042, -0.1861,  0.0329,  0.0031, -0.0137,  0.0243,  0.0013
1492035719.3086659908,1492035719.3110749722, -0.1861,  0.0329,  0.0031, -0.0126,  0.0244,  0.0013
1492035719.3114531040,1492035719.3138730526, -0.1861,  0.0329,  0.0031, -0.0126,  0.0244,  0.0013
1492035719.3142509460,1492035719.3166809082, -0.1861,  0.0329,  0.0031, -0.0126,  0.0244,  0.0013
1492035719.3170599937,1492035719.3194839954, -0.1861,  0.0329,  0.0109, -0.0094,  0.0243,  0.0032
1492035719.3198609352,1492035719.3223040104, -0.1828,  0.0255,  0.0085, -0.0094,  0.0243,  0.0032
1492035719.3226819038,1492035719.3251059055, -0.1828,  0.0255,  0.0085, -0.0094,  0.0243,  0.0032
1492035719.3254840374,1492035719.3279109001, -0.1828,  0.0255,  0.0085, -0.0094,  0.0243,  0.0032
1492035719.3282899857,1492035719.3307290077, -0.1828,  0.0255,  0.0085, -0.0102,  0.0274,  0.0066
1492035719.3311069012,1492035719.3335349560, -0.1828,  0.0255,  0.0085, -0.0102,  0.0274,  0.0066
1492035719.3339118958,1492035719.3363409042, -0.1828,  0.0255,  0.0085, -0.0102,  0.0274,  0.0066
1492035719.3367209435,1492035719.3391530514, -0.1828,  0.0255,  0.0085, -0.0102,  0.0274,  0.0117
1492035719.3395290375,1492035719.3419680595, -0.1901,  0.0279,  0.0057, -0.0138,  0.0317,  0.0117
1492035719.3423449993,1492035719.3447749615, -0.1901,  0.0279,  0.0057, -0.0138,  0.0317,  0.0117
1492035719.3451509476,1492035719.3475799561, -0.1901,  0.0279,  0.0057, -0.0138,  0.0317,  0.0117
1492035719.3479568958,1492035719.3504199982, -0.1901,  0.0279,  0.0057, -0.0138,  0.0343,  0.0164
1492035719.3507900238,1492035719.3530941010, -0.1901,  0.0279,  0.0057, -0.0138,  0.0343,  0.0164
1492035719.3534629345,1492035719.3557629585, -0.1901,  0.0279,  0.0057, -0.0138,  0.0343,  0.0164
1492035719.3561310768,1492035719.3584280014, -0.1901,  0.0279,  0.0057, -0.0138,  0.0343,  0.0164
1492035719.3587989807,1492035719.3611550331, -0.1912,  0.0214,  0.0170, -0.0159,  0.0371,  0.0202
1492035719.3615250587,1492035719.3638219833, -0.1912,  0.0214,  0.0170, -0.0159,  0.0371,  0.0202
1492035719.3641889095,1492035719.3664898872, -0.1912,  0.0214,  0.0170, -0.0159,  0.0371,  0.0202
1492035719.3668580055,1492035719.3691589832, -0.1912,  0.0214,  0.0170, -0.0159,  0.0371,  0.0202
1492035719.3695271015,1492035719.3720030785, -0.1912,  0.0214,  0.0170, -0.0148,  0.0416,  0.0244
1492035719.3723809719,1492035719.3748130798, -0.1912,  0.0214,  0.0170, -0.0148,  0.0416,  0.0244
1492035719.3752880096,1492035719.3777151108, -0.1912,  0.0214,  0.0170, -0.0148,  0.0416,  0.0244
1492035719.3780910969,1492035719.3805270195, -0.1855,  0.0275,  0.0181, -0.0148,  0.0416,  0.0299
1492035719.3809039593,1492035719.3833301067, -0.1855,  0.0275,  0.0181, -0.0152,  0.0450,  0.0299
1492035719.3837070465,1492035719.3861320019, -0.1855,  0.0275,  0.0181, -0.0152,  0.0450,  0.0299
1492035719.3865089417,1492035719.3889360428, -0.1855,  0.0275,  0.0181, -0.0152,  0.0450,  0.0299
1492035719.3893120289,1492035719.3917469978, -0.1855,  0.0275,  0.0181, -0.0168,  0.0484,  0.0340
1492035719.3921239376,1492035719.3945488930, -0.1855,  0.0275,  0.0181, -0.0168,  0.0484,  0.0340
1492035719.3949251175,1492035719.3973529339, -0.1855,  0.0275,  0.0181, -0.0168,  0.0484,  0.0340
1492035719.3977289200,1492035719.4001569748, -0.1872,  0.0385,  0.0183, -0.0168,  0.0484,  0.0340
1492035719.4005310535,1492035719.4029510021, -0.1872,  0.0385,  0.0183, -0.0105,  0.0543,  0.0381
1492035719.4033279419,1492035719.4057579041, -0.1872,  0.0385,  0.0183, -0.0105,  0.0543,  0.0381
1492035719.4061329365,1492035719.4085600376, -0.1872,  0.0385,  0.0183, -0.0105,  0.0543,  0.0381
1492035719.4089350700,1492035719.4112949371, -0.1872,  0.0385,  0.0183, -0.0105,  0.0543,  0.0420
1492035719.4116621017,1492035719.4139609337, -0.1872,  0.0385,  0.0183, -0.0061,  0.0595,  0.0420
1492035719.4143300056,1492035719.4166290760, -0.1872,  0.0385,  0.0183, -0.0061,  0.0595,  0.0420
1492035719.4169969559,1492035719.4193038940, -0.1950,  0.0313,  0.0153, -0.0061,  0.0595,  0.0420
1492035719.4196729660,1492035719.4220759869, -0.1925,  0.0313,  0.0153,  0.0017,  0.0701,  0.0453
1492035719.4224541187,1492035719.4248769283, -0.1925,  0.0313,  0.0153,  0.0029,  0.0701,  0.0453
1492035719.4252529144,1492035719.4276850224, -0.1925,  0.0313,  0.0153,  0.0029,  0.0701,  0.0453
1492035719.4280641079,1492035719.4305040836, -0.1925,  0.0313,  0.0153,  0.0029,  0.0701,  0.0453
1492035719.4308800697,1492035719.4333069324, -0.1925,  0.0313,  0.0153,  0.0139,  0.0763,  0.0509
1492035719.4336829185,1492035719.4361040592, -0.1925,  0.0313,  0.0153,  0.0139,  0.0763,  0.0509
1492035719.4364809990,1492035719.4389140606, -0.1925,  0.0298,  0.0097,  0.0139,  0.0763,  0.0509
1492035719.4392919540,1492035719.4417290688, -0.2074,  0.0298,  0.0097,  0.0139,  0.0763,  0.0509
1492035719.4421050549,1492035719.4445219040, -0.2074,  0.0298,  0.0097,  0.0195,  0.0840,  0.0593
1492035719.4449000359,1492035719.4473209381, -0.2074,  0.0298,  0.0097,  0.0195,  0.0840,  0.0593
1492035719.4477009773,1492035719.4501359463, -0.2074,  0.0298,  0.0097,  0.0195,  0.0840,  0.0593
1492035719.4505128860,1492035719.4529359341, -0.2074,  0.0298,  0.0097,  0.0195,  0.0928,  0.0701
1492035719.4533109665,1492035719.4557409286, -0.2074,  0.0298,  0.0097,  0.0329,  0.0928,  0.0701
1492035719.4561190605,1492035719.4585430622, -0.2074,  0.0376,  0.0259,  0.0329,  0.0928,  0.0701
1492035719.4589200020,1492035719.4612851143, -0.2236,  0.0317,  0.0259,  0.0329,  0.0928,  0.0701
1492035719.4616539478,1492035719.4639549255, -0.2236,  0.0317,  0.0259,  0.0492,  0.1072,  0.0863
1492035719.4643230438,1492035719.4666249752, -0.2236,  0.0317,  0.0259,  0.0492,  0.1072,  0.0863
1492035719.4669940472,1492035719.4692959785, -0.2236,  0.0317,  0.0259,  0.0492,  0.1072,  0.0863
1492035719.4696679115,1492035719.4719879627, -0.2236,  0.0317,  0.0259,  0.0492,  0.1072,  0.0863
1492035719.4723579884,1492035719.4746561050, -0.2236,  0.0317,  0.0259,  0.0701,  0.1261,  0.1048
1492035719.4750239849,1492035719.4773259163, -0.2236,  0.0317,  0.0259,  0.0701,  0.1261,  0.1048
1492035719.4776940346,1492035719.4800539017, -0.2462,  0.0097,  0.0417,  0.0701,  0.1261,  0.1048
1492035719.4804348946,1492035719.4828588963, -0.2462,  0.0097,  0.0417,  0.0701,  0.1261,  0.1048
1492035719.4832389355,1492035719.4856700897, -0.2462,  0.0097,  0.0417,  0.0869,  0.1473,  0.1252
1492035719.4860460758,1492035719.4884641171, -0.2462,  0.0097,  0.0417,  0.0869,  0.1473,  0.1252
1492035719.4888410568,1492035719.4912669659, -0.2462,  0.0097,  0.0417,  0.0869,  0.1473,  0.1252
1492035719.4917519093,1492035719.4941830635, -0.2462,  0.0097,  0.0417,  0.1026,  0.1669,  0.1527
1492035719.4945600033,1492035719.4969820976, -0.2462,  0.0097,  0.0417,  0.1032,  0.1669,  0.1527
1492035719.4973590374,1492035719.4997920990, -0.2975,  0.0163,  0.0499,  0.1032,  0.1669,  0.1527
1492035719.5001769066,1492035719.5026021004, -0.2975,  0.0163,  0.0499,  0.1032,  0.1669,  0.1527
1492035719.5029780865,1492035719.5054030418, -0.2975,  0.0163,  0.0499,  0.1175,  0.1931,  0.1865
1492035719.5057790279,1492035719.5082120895, -0.2975,  0.0163,  0.0499,  0.1175,  0.1931,  0.1865
1492035719.5085890293,1492035719.5109779835, -0.2975,  0.0163,  0.0499,  0.1175,  0.1931,  0.1865
1492035719.5113480091,1492035719.5136489868, -0.2975,  0.0163,  0.0499,  0.1175,  0.1931,  0.1865
1492035719.5140180588,1492035719.5163190365, -0.2975,  0.0163,  0.0499,  0.1235,  0.2244,  0.2254
1492035719.5166869164,1492035719.5189840794, -0.3618,  0.0193,  0.0647,  0.1235,  0.2244,  0.2254
1492035719.5193519592,1492035719.5217580795, -0.3618,  0.0193,  0.0647,  0.1235,  0.2244,  0.2254
1492035719.5221340656,1492035719.5245571136, -0.3618,  0.0193,  0.0647,  0.1235,  0.2244,  0.2553
1492035719.5249350071,1492035719.5273549557, -0.3618,  0.0193,  0.0647,  0.1364,  0.2406,  0.2553
1492035719.5277299881,1492035719.5301649570, -0.3618,  0.0193,  0.0647,  0.1364,  0.2406,  0.2553
1492035719.5305399895,1492035719.5329599380, -0.3618,  0.0193,  0.0647,  0.1364,  0.2406,  0.2553
1492035719.5333371162,1492035719.5357589722, -0.3618,  0.0193,  0.0647,  0.1450,  0.2748,  0.2934
1492035719.5361371040,1492035719.5385680199, -0.5580, -0.0420,  0.0732,  0.1450,  0.2748,  0.2934
1492035719.5389449596,1492035719.5413739681, -0.5580, -0.0420,  0.0732,  0.1450,  0.2748,  0.2934
1492035719.5417490005,1492035719.5441761017, -0.5580, -0.0420,  0.0732,  0.1450,  0.2748,  0.2934
1492035719.5445520878,1492035719.5469770432, -0.5580, -0.0420,  0.0732,  0.0981,  0.3272,  0.3549
1492035719.5473549366,1492035719.5497760773, -0.5580, -0.0420,  0.0732,  0.0981,  0.3272,  0.3549
1492035719.5501620770,1492035719.5525889397, -0.5580, -0.0420,  0.0732,  0.0981,  0.3272,  0.3549
1492035719.5529661179,1492035719.5553929806, -0.5580, -0.0420,  0.0732,  0.0981,  0.3272,  0.4192
1492035719.5557711124,1492035719.5581960678, -0.6877, -0.2220,  0.2554,  0.0007,  0.3597,  0.4192
1492035719.5585711002,1492035719.5609889030, -0.6877, -0.2220,  0.2554,  0.0007,  0.3597,  0.4192
1492035719.5613589287,1492035719.5636610985, -0.6877, -0.2220,  0.2554,  0.0007,  0.3597,  0.4192
1492035719.5640280247,1492035719.5663340092, -0.6877, -0.2220,  0.2554, -0.0600,  0.4206,  0.4561
1492035719.5667030811,1492035719.5690050125, -0.6877, -0.2220,  0.2554, -0.0600,  0.4206,  0.4561
1492035719.5693740845,1492035719.5717720985, -0.6877, -0.2220,  0.2554, -0.0600,  0.4206,  0.4561
1492035719.5721490383,1492035719.5745749474, -0.6877, -0.2220,  0.2554, -0.0600,  0.4206,  0.4561
1492035719.5749518871,1492035719.5773749352, -0.6877, -0.0266,  0.0086, -0.1427,  0.5100,  0.5303
1492035719.5777530670,1492035719.5802459717, -0.7069, -0.0305,  0.0086, -0.1427,  0.5100,  0.5303
1492035719.5806250572,1492035719.5830481052, -0.7069, -0.0305,  0.0086, -0.1427,  0.5100,  0.5303
1492035719.5834259987,1492035719.5858490467, -0.7069, -0.0305,  0.0086, -0.1427,  0.5100,  0.5303
1492035719.5862269402,1492035719.5886609554, -0.7069, -0.0305,  0.0086, -0.2764,  0.5002,  0.5830
1492035719.5890390873,1492035719.5914719105, -0.7069, -0.0305,  0.0086, -0.2764,  0.5002,  0.5830
1492035719.5918500423,1492035719.5942699909, -0.7069, -0.0305,  0.0086, -0.2764,  0.5002,  0.5830
1492035719.5946469307,1492035719.5970768929, -0.7069, -0.0305, -0.0109, -0.3701,  0.5273,  0.5751
1492035719.5974531174,1492035719.5998790264, -0.5525, -0.1249, -0.0109, -0.3676,  0.5273,  0.5751
1492035719.6002600193,1492035719.6026849747, -0.5525, -0.1249, -0.0109, -0.3676,  0.5273,  0.5751
1492035719.6030619144,1492035719.6054930687, -0.5525, -0.1249, -0.0109, -0.3676,  0.5273,  0.5751
1492035719.6058690548,1492035719.6082971096, -0.5525, -0.1249, -0.0109, -0.4923,  0.5154,  0.5569
1492035719.6087810993,1492035719.6112051010, -0.5525, -0.1249, -0.0109, -0.4923,  0.5154,  0.5569
1492035719.6115760803,1492035719.6138789654, -0.5525, -0.1249, -0.0109, -0.4923,  0.5154,  0.5569
1492035719.6142470837,1492035719.6165440083, -0.5525, -0.1249,  0.2664, -0.4923,  0.5154,  0.5569
1492035719.6169118881,1492035719.6192169189, -0.4441,  0.0143,  0.2664, -0.5842,  0.3945,  0.5601
1492035719.6195840836,1492035719.6220419407, -0.4441,  0.0143,  0.2664, -0.5842,  0.3945,  0.5601
1492035719.6224200726,1492035719.6248419285, -0.4441,  0.0143,  0.2664, -0.5842,  0.3945,  0.5601
1492035719.6252179146,1492035719.6276440620, -0.4441,  0.0143,  0.2664, -0.5842,  0.3476,  0.5338
1492035719.6280190945,1492035719.6304509640, -0.4441,  0.0143,  0.2664, -0.4620,  0.3495,  0.5338
1492035719.6308269501,1492035719.6332509518, -0.4441,  0.0143,  0.2664, -0.4620,  0.3495,  0.5338
1492035719.6336278915,1492035719.6360490322, -0.4441,  0.0143,  0.2664, -0.4620,  0.3495,  0.5338
1492035719.6364240646,1492035719.6388471127, -0.2915, -0.0016,  0.3094, -0.2451,  0.3283,  0.4695
1492035719.6392230988,1492035719.6416630745, -0.2915, -0.0016,  0.3094, -0.2451,  0.3283,  0.4695
1492035719.6420419216,1492035719.6444621086, -0.2915, -0.0016,  0.3094, -0.2451,  0.3283,  0.4695
1492035719.6448390484,1492035719.6472589970, -0.2915, -0.0016,  0.3094, -0.2451,  0.3283,  0.4695
1492035719.6476359367,1492035719.6500670910, -0.2915, -0.0016,  0.3094, -0.0755,  0.3054,  0.3651
1492035719.6504399776,1492035719.6527419090, -0.2915, -0.0016,  0.3094, -0.0755,  0.3054,  0.3651
1492035719.6531128883,1492035719.6554160118, -0.2915, -0.0016,  0.3094, -0.0755,  0.3054,  0.3651
1492035719.6557860374,1492035719.6580851078, -0.0656, -0.1387,  0.1539, -0.0755,  0.3054,  0.2489
1492035719.6584529877,1492035719.6608569622, -0.0656, -0.1387,  0.1539,  0.0013,  0.2792,  0.2489
1492035719.6612339020,1492035719.6636650562, -0.0656, -0.1387,  0.1539,  0.0013,  0.2792,  0.2489
1492035719.6640450954,1492035719.6664628983, -0.0656, -0.1387,  0.1539,  0.0013,  0.2792,  0.2489
1492035719.6668379307,1492035719.6692590714, -0.0656, -0.1387,  0.1539,  0.0547,  0.2318,  0.1152
1492035719.6696369648,1492035719.6720728874, -0.0656, -0.1387,  0.1539,  0.0547,  0.2318,  0.1152
1492035719.6724519730,1492035719.6748790741, -0.0656, -0.1387,  0.1539,  0.0547,  0.2318,  0.1152
1492035719.6752569675,1492035719.6776840687,  0.0128, -0.2448,  0.0650,  0.0547,  0.2318,  0.1152
1492035719.6780591011,1492035719.6804940701,  0.0128, -0.2448,  0.0650,  0.0523,  0.1743, -0.0119
1492035719.6808710098,1492035719.6832931042,  0.0128, -0.2448,  0.0650,  0.0523,  0.1743, -0.0119
1492035719.6836700439,1492035719.6860969067,  0.0128, -0.2448,  0.0650,  0.0523,  0.1743, -0.0119
1492035719.6864728928,1492035719.6888930798,  0.0128, -0.2448,  0.0650,  0.0523,  0.1743, -0.1212
1492035719.6892700195,1492035719.6917040348,  0.0128, -0.2448,  0.0650, -0.0297,  0.1006, -0.1215
1492035719.6920809746,1492035719.6945118904,  0.0128, -0.2448,  0.0650, -0.0297,  0.1006, -0.1215
1492035719.6948890686,1492035719.6973121166,  0.0646, -0.2902,  0.0545, -0.0297,  0.1006, -0.1215
1492035719.6976890564,1492035719.7001299858,  0.0646, -0.2902,  0.0545, -0.1396,  0.0293, -0.2260
1492035719.7005009651,1492035719.7028019428,  0.0646, -0.2902,  0.0545, -0.1396,  0.0293, -0.2260
1492035719.7031710148,1492035719.7054710388,  0.0646, -0.2902,  0.0545, -0.1396,  0.0293, -0.2260
1492035719.7058410645,1492035719.7081470490,  0.0646, -0.2902,  0.0545, -0.1396,  0.0293, -0.2260
1492035719.7085158825,1492035719.7108759880,  0.0646, -0.2902,  0.0545, -0.2254, -0.0316, -0.3219
1492035719.7112519741,1492035719.7136778831,  0.0646, -0.2902,  0.0545, -0.2254, -0.0316, -0.3219
1492035719.7140541077,1492035719.7164869308,  0.0412, -0.1946,  0.1183, -0.2254, -0.0316, -0.3219
1492035719.7168650627,1492035719.7192859650,  0.0399, -0.1946,  0.1183, -0.2254, -0.0316, -0.3219
1492035719.7196619511,1492035719.7221050262,  0.0399, -0.1946,  0.1183, -0.2668, -0.0834, -0.4064
1492035719.7224829197,1492035719.7249069214,  0.0399, -0.1946,  0.1183, -0.2668, -0.0834, -0.4064
1492035719.7253880501,1492035719.7278161049,  0.0399, -0.1946,  0.1183, -0.2668, -0.0834, -0.4064
1492035719.7281920910,1492035719.7306358814,  0.0399, -0.1946,  0.1183, -0.2668, -0.1254, -0.4777
1492035719.7310121059,1492035719.7334370613,  0.0399, -0.1946,  0.1183, -0.2707, -0.1254, -0.4777
1492035719.7338140011,1492035719.7362349033,  0.0008, -0.1440,  0.1253, -0.2707, -0.1254, -0.4777
1492035719.7366120815,1492035719.7390449047,  0.0026, -0.1440,  0.1253, -0.2707, -0.1254, -0.4777
1492035719.7394220829,1492035719.7418620586,  0.0026, -0.1440,  0.1253, -0.2646, -0.1613, -0.5458
1492035719.7422380447,1492035719.7446699142,  0.0026, -0.1440,  0.1253, -0.2646, -0.1613, -0.5458
1492035719.7450449467,1492035719.7474679947,  0.0026, -0.1440,  0.1253, -0.2646, -0.1613, -0.5458
1492035719.7478439808,1492035719.7502679825,  0.0026, -0.1440,  0.1253, -0.2646, -0.1613, -0.5458
1492035719.7506370544,1492035719.7529420853,  0.0026, -0.1440,  0.1253, -0.2473, -0.1947, -0.6077
1492035719.7533099651,1492035719.7556118965,  0.0026, -0.1257,  0.1123, -0.2473, -0.1947, -0.6077
1492035719.7559800148,1492035719.7582790852, -0.0327, -0.1257,  0.1123, -0.2473, -0.1947, -0.6077
1492035719.7586500645,1492035719.7609949112, -0.0327, -0.1257,  0.1123, -0.2473, -0.1947, -0.6654
1492035719.7613639832,1492035719.7636570930, -0.0327, -0.1257,  0.1123, -0.2095, -0.2201, -0.6654
1492035719.7640259266,1492035719.7663249969, -0.0327, -0.1257,  0.1123, -0.2095, -0.2201, -0.6654
1492035719.7666931152,1492035719.7689909935, -0.0327, -0.1257,  0.1123, -0.2095, -0.2201, -0.6654
1492035719.7693600655,1492035719.7717781067, -0.0327, -0.1257,  0.1123, -0.2095, -0.2357, -0.7182
1492035719.7721550465,1492035719.7745819092, -0.0327, -0.1257,  0.1123, -0.1613, -0.2376, -0.7182
1492035719.7749590874,1492035719.7773799896, -0.0117, -0.0713,  0.0878, -0.1613, -0.2376, -0.7182
1492035719.7777559757,1492035719.7802250385, -0.0117, -0.0713,  0.0878, -0.1613, -0.2376, -0.7182
1492035719.7806019783,1492035719.7830269337, -0.0117, -0.0713,  0.0878, -0.0929, -0.2536, -0.7695
1492035719.7834050655,1492035719.7858328819, -0.0117, -0.0713,  0.0878, -0.0929, -0.2536, -0.7695
1492035719.7862091064,1492035719.7886359692, -0.0117, -0.0713,  0.0878, -0.0929, -0.2536, -0.7695
1492035719.7890141010,1492035719.7914440632, -0.0117, -0.0713,  0.0878, -0.0929, -0.2536, -0.7695
1492035719.7918200493,1492035719.7942399979, -0.0117, -0.0713,  0.0878,  0.0007, -0.2736, -0.8180
1492035719.7946169376,1492035719.7970459461, -0.0067, -0.0214,  0.0591,  0.0007, -0.2736, -0.8180
1492035719.7974219322,1492035719.7998480797, -0.0067, -0.0214,  0.0591,  0.0007, -0.2736, -0.8180
1492035719.8002340794,1492035719.8026518822, -0.0067, -0.0214,  0.0591,  0.0007, -0.2946, -0.8568
1492035719.8030331135,1492035719.8054668903, -0.0067, -0.0214,  0.0591,  0.1037, -0.2946, -0.8568
1492035719.8058459759,1492035719.8082718849, -0.0067, -0.0214,  0.0591,  0.1037, -0.2946, -0.8568
1492035719.8086500168,1492035719.8110380173, -0.0067, -0.0214,  0.0591,  0.1037, -0.2946, -0.8568
1492035719.8114099503,1492035719.8137099743, -0.0067, -0.0214,  0.0591,  0.2015, -0.3212, -0.8833
1492035719.8140790462,1492035719.8163800240, -0.0798,  0.0532, -0.0052,  0.2015, -0.3212, -0.8833
1492035719.8167500496,1492035719.8190529346, -0.0798,  0.0532, -0.0052,  0.2015, -0.3212, -0.8833
1492035719.8194220066,1492035719.8218569756, -0.0798,  0.0532, -0.0052,  0.2015, -0.3212, -0.8833
1492035719.8222351074,1492035719.8246619701, -0.0798,  0.0532, -0.0052,  0.2573, -0.3483, -0.8844
1492035719.8250410557,1492035719.8274700642, -0.0798,  0.0532, -0.0052,  0.2573, -0.3483, -0.8844
1492035719.8278450966,1492035719.8303101063, -0.0798,  0.0532, -0.0052,  0.2573, -0.3483, -0.8844
1492035719.8306860924,1492035719.8331151009, -0.0798,  0.0532, -0.0052,  0.2573, -0.3483, -0.8435
1492035719.8334939480,1492035719.8359200954, -0.2654,  0.1693, -0.1541,  0.2420, -0.3711, -0.8435
1492035719.8362989426,1492035719.8387260437, -0.2654,  0.1693, -0.1541,  0.2420, -0.3711, -0.8435
1492035719.8390998840,1492035719.8415439129, -0.2654,  0.1693, -0.1541,  0.2420, -0.3711, -0.8435
1492035719.8420300484,1492035719.8444509506, -0.2654,  0.1693, -0.1541,  0.1749, -0.3553, -0.7308
1492035719.8448278904,1492035719.8472490311, -0.2654,  0.1693, -0.1541,  0.1749, -0.3553, -0.7308
1492035719.8476250172,1492035719.8500618935, -0.2654,  0.1693, -0.1541,  0.1749, -0.3553, -0.7308
1492035719.8504319191,1492035719.8527269363, -0.2654,  0.1693, -0.1541,  0.1749, -0.3553, -0.7308
1492035719.8530950546,1492035719.8553979397, -0.4374,  0.4779, -0.2998,  0.0896, -0.3008, -0.5602
1492035719.8557679653,1492035719.8580689430, -0.4374,  0.4779, -0.2998,  0.0896, -0.3008, -0.5602
1492035719.8584380150,1492035719.8608660698, -0.4374,  0.4779, -0.2998,  0.0896, -0.3008, -0.5602
1492035719.8612370491,1492035719.8635470867, -0.4374,  0.4779, -0.2998,  0.0896, -0.3008, -0.5602
1492035719.8639159203,1492035719.8662118912, -0.4374,  0.4779, -0.2998,  0.0044, -0.2181, -0.3674
1492035719.8665790558,1492035719.8688800335, -0.4374,  0.4779, -0.2998,  0.0044, -0.2181, -0.3674
1492035719.8692491055,1492035719.8716990948, -0.4374,  0.4779, -0.2998,  0.0044, -0.2181, -0.3674
1492035719.8720719814,1492035719.8743679523, -0.4374,  0.8997, -0.4027,  0.0044, -0.2181, -0.2639
1492035719.8747360706,1492035719.8770411015, -0.4492,  0.9017, -0.4027, -0.0707, -0.1909, -0.2639
1492035719.8774108887,1492035719.8797080517, -0.4492,  0.9017, -0.4027, -0.0707, -0.1909, -0.2639
1492035719.8800470829,1492035719.8825380802, -0.4492,  0.9017, -0.4027, -0.0707, -0.1909, -0.2639
1492035719.8829131126,1492035719.8853290081, -0.4492,  0.9017, -0.4027, -0.1093, -0.2260, -0.2056
1492035719.8857040405,1492035719.8881158829, -0.4492,  0.9017, -0.4027, -0.1093, -0.2260, -0.2056
1492035719.8884909153,1492035719.8909349442, -0.4492,  0.9017, -0.4027, -0.1093, -0.2260, -0.2056
1492035719.8913099766,1492035719.8937261105, -0.4492,  0.9017, -0.3246, -0.1093, -0.2260, -0.2056
1492035719.8941040039,1492035719.8965148926, -0.3582,  0.8106, -0.3269, -0.1062, -0.1075, -0.0531
1492035719.8968920708,1492035719.8993020058, -0.3582,  0.8106, -0.3269, -0.1062, -0.1075, -0.0531
1492035719.8996779919,1492035719.9020791054, -0.3582,  0.8106, -0.3269, -0.1062, -0.1075, -0.0531
1492035719.9024550915,1492035719.9048418999, -0.3582,  0.8106, -0.3269, -0.1062, -0.1075,  0.0562
1492035719.9052178860,1492035719.9076089859, -0.3582,  0.8106, -0.3269, -0.0050, -0.0017,  0.0596
1492035719.9079871178,1492035719.9104199409, -0.3582,  0.8106, -0.3269, -0.0050, -0.0017,  0.0596
1492035719.9107909203,1492035719.9130930901, -0.3582,  0.8106, -0.3269, -0.0050, -0.0017,  0.0596
1492035719.9134631157,1492035719.9157700539, -0.2856,  0.6985, -0.2351, -0.0050,  0.0295,  0.1096
1492035719.9161379337,1492035719.9184389114, -0.2856,  0.6985, -0.2351,  0.0706,  0.0291,  0.1096
1492035719.9188079834,1492035719.9212300777, -0.2856,  0.6985, -0.2351,  0.0706,  0.0291,  0.1096
1492035719.9216079712,1492035719.9240369797, -0.2856,  0.6985, -0.2351,  0.0706,  0.0291,  0.1096
1492035719.9244129658,1492035719.9268350601, -0.2856,  0.6985, -0.2351,  0.1696,  0.0704,  0.2652
1492035719.9272100925,1492035719.9296391010, -0.2856,  0.6985, -0.2351,  0.1696,  0.0704,  0.2652
1492035719.9300270081,1492035719.9324519634, -0.2856,  0.6985, -0.2351,  0.1696,  0.0704,  0.2652
1492035719.9328269958,1492035719.9352509975, -0.7112,  0.5107,  0.7114,  0.1696,  0.0704,  0.2652
1492035719.9356250763,1492035719.9380590916, -0.7112,  0.5107,  0.7114, -0.0718, -0.3107,  0.1884
1492035719.9384379387,1492035719.9408659935, -0.7112,  0.5107,  0.7114, -0.0718, -0.3107,  0.1884
1492035719.9412419796,1492035719.9436690807, -0.7112,  0.5107,  0.7114, -0.0718, -0.3107,  0.1884
1492035719.9440441132,1492035719.9464709759, -0.7112,  0.5107,  0.7114, -0.0718, -0.3107, -0.0781
1492035719.9468450546,1492035719.9492659569, -0.7112,  0.5107,  0.7114,  0.2540,  0.0066, -0.0781
1492035719.9496450424,1492035719.9520831108, -0.7112,  0.5107,  0.7114,  0.2540,  0.0066, -0.0781
1492035719.9524600506,1492035719.9548881054, -0.2285, -0.5416,  0.0647,  0.2540,  0.0066, -0.0781
1492035719.9553720951,1492035719.9577929974, -0.2285, -0.5416,  0.0647,  0.3223,  0.3306,  0.3405
1492035719.9581708908,1492035719.9606380463, -0.2285, -0.5416,  0.0647,  0.3223,  0.3306,  0.3405
1492035719.9610071182,1492035719.9633069038, -0.2285, -0.5416,  0.0647,  0.3223,  0.3306,  0.3405
1492035719.9636750221,1492035719.9659750462, -0.2285, -0.5416,  0.0647,  0.3223,  0.3306,  0.3405
1492035719.9663419724,1492035719.9686460495, -0.2285, -0.5416,  0.0647,  0.0871,  0.4569,  0.6487
1492035719.9690148830,1492035719.9714388847, -0.2285, -0.5416,  0.0647,  0.0871,  0.4569,  0.6487
1492035719.9718139172,1492035719.9742300510,  0.1788,  0.1543, -0.1053,  0.0871,  0.4569,  0.6487
1492035719.9746060371,1492035719.9770169258,  0.1788,  0.1543, -0.1053,  0.0871,  0.4569,  0.7972
1492035719.9773919582,1492035719.9798018932,  0.1788,  0.1543, -0.1053, -0.2104, -0.0278,  0.7992
1492035719.9801840782,1492035719.9825758934,  0.1788,  0.1543, -0.1053, -0.2104, -0.0278,  0.7992
1492035719.9829499722,1492035719.9853401184,  0.1788,  0.1543, -0.1053, -0.2104, -0.0278,  0.7992
1492035719.9857139587,1492035719.9881119728,  0.1788,  0.1543, -0.1053, -0.0072, -0.2034,  0.5498
1492035719.9884879589,1492035719.9908950329,  0.1788,  0.1543, -0.1053, -0.0063, -0.2034,  0.5498
1492035719.9912729263,1492035719.9936809540, -0.1649,  0.1334, -0.1102, -0.0063, -0.2034,  0.5498
1492035719.9940569401,1492035719.9964768887, -0.1661,  0.1334, -0.1102, -0.0063, -0.2034,  0.5498
1492035719.9968519211,1492035719.9992659092, -0.1661,  0.1334, -0.1102,  0.1364,  0.1283,  0.2771
1492035719.9996409416,1492035720.0019640923, -0.1661,  0.1334, -0.1102,  0.1364,  0.1283,  0.2771
1492035720.0023350716,1492035720.0046401024, -0.1661,  0.1334, -0.1102,  0.1364,  0.1283,  0.2771
1492035720.0050098896,1492035720.0073111057, -0.1661,  0.1334, -0.1102,  0.1364,  0.1283,  0.2771
1492035720.0076789856,1492035720.0100989342, -0.1661,  0.1334, -0.1102,  0.0513, -0.0335,  0.2561
1492035720.0104789734,1492035720.0129039288, -0.1661,  0.1334,  0.0030,  0.0513, -0.0335,  0.2561
1492035720.0132799149,1492035720.0157070160, -0.2737,  0.1682,  0.0030,  0.0513, -0.0335,  0.2561
1492035720.0160839558,1492035720.0185129642, -0.2737,  0.1682,  0.0030,  0.0513, -0.0335,  0.2704
1492035720.0188889503,1492035720.0213220119, -0.2737,  0.1682,  0.0030,  0.1110,  0.0422,  0.2704
1492035720.0216979980,1492035720.0241279602, -0.2737,  0.1682,  0.0030,  0.1110,  0.0422,  0.2704
1492035720.0245070457,1492035720.0269370079, -0.2737,  0.1682,  0.0030,  0.1110,  0.0422,  0.2704
1492035720.0273139477,1492035720.0297400951, -0.2737,  0.1682,  0.0030,  0.1582,  0.1195,  0.2515
1492035720.0301260948,1492035720.0325570107, -0.2737,  0.1682,  0.0289,  0.1582,  0.1195,  0.2515
1492035720.0329310894,1492035720.0353579521, -0.1955,  0.1043,  0.0289,  0.1582,  0.1195,  0.2515
1492035720.0357339382,1492035720.0381579399, -0.1955,  0.1043,  0.0289,  0.1582,  0.1195,  0.2515
1492035720.0385351181,1492035720.0409669876, -0.1955,  0.1043,  0.0289,  0.1509,  0.1421,  0.2332
1492035720.0413420200,1492035720.0437700748, -0.1955,  0.1043,  0.0289,  0.1509,  0.1421,  0.2332
1492035720.0441460609,1492035720.0465679169, -0.1955,  0.1043,  0.0289,  0.1509,  0.1421,  0.2332
1492035720.0469439030,1492035720.0493769646, -0.1955,  0.1043,  0.0289,  0.1509,  0.1421,  0.2202
1492035720.0497519970,1492035720.0520629883, -0.1955,  0.1043,  0.0992,  0.2097,  0.2123,  0.2202
1492035720.0524330139,1492035720.0547358990, -0.1529,  0.0898,  0.0974,  0.2097,  0.2123,  0.2202
1492035720.0551021099,1492035720.0573990345, -0.1529,  0.0898,  0.0974,  0.2097,  0.2123,  0.2202
1492035720.0577681065,1492035720.0600850582, -0.1529,  0.0898,  0.0974,  0.1941,  0.1482,  0.2060
1492035720.0604610443,1492035720.0628859997, -0.1529,  0.0898,  0.0974,  0.1903,  0.1482,  0.2060
1492035720.0632619858,1492035720.0656869411, -0.1529,  0.0898,  0.0974,  0.1903,  0.1482,  0.2060
1492035720.0660619736,1492035720.0684890747, -0.1529,  0.0898,  0.0974,  0.1903,  0.1482,  0.2060
1492035720.0688660145,1492035720.0713028908, -0.1529,  0.0898,  0.0974,  0.1751,  0.1314,  0.1826
1492035720.0717840195,1492035720.0742070675, -0.2258,  0.1610,  0.0199,  0.1751,  0.1314,  0.1826
1492035720.0745820999,1492035720.0770161152, -0.2258,  0.1610,  0.0199,  0.1751,  0.1314,  0.1826
1492035720.0773899555,1492035720.0798099041, -0.2258,  0.1610,  0.0199,  0.1751,  0.1314,  0.1514
1492035720.0801930428,1492035720.0826179981, -0.2258,  0.1610,  0.0199,  0.1844,  0.1266,  0.1499
1492035720.0829939842,1492035720.0854229927, -0.2258,  0.1610,  0.0199,  0.1844,  0.1266,  0.1499
1492035720.0857970715,1492035720.0882229805, -0.2258,  0.1610,  0.0199,  0.1844,  0.1266,  0.1499
1492035720.0886011124,1492035720.0910680294, -0.2258,  0.1610,  0.0199,  0.2469,  0.1526,  0.1084
1492035720.0914440155,1492035720.0938799381, -0.3691,  0.1526, -0.0112,  0.2426,  0.1526,  0.1084
1492035720.0942559242,1492035720.0966839790, -0.3691,  0.1526, -0.0112,  0.2426,  0.1526,  0.1084
1492035720.0970621109,1492035720.0994839668, -0.3691,  0.1526, -0.0112,  0.2426,  0.1526,  0.1084
1492035720.0998589993,1492035720.1021850109, -0.3691,  0.1526, -0.0112,  0.2809,  0.1714,  0.0550
1492035720.1025540829,1492035720.1048491001, -0.3691,  0.1526, -0.0112,  0.2809,  0.1714,  0.0550
1492035720.1052169800,1492035720.1075251102, -0.3691,  0.1526, -0.0112,  0.2809,  0.1714,  0.0550
1492035720.1078939438,1492035720.1102490425, -0.3691,  0.1526, -0.0112,  0.2809,  0.1714,  0.0550
1492035720.1106200218,1492035720.1129140854, -0.4301,  0.0858, -0.0109,  0.2769,  0.1610, -0.0341
1492035720.1132841110,1492035720.1155810356, -0.4301,  0.0858, -0.0109,  0.2769,  0.1610, -0.0341
1492035720.1159510612,1492035720.1182520390, -0.4301,  0.0858, -0.0109,  0.2769,  0.1610, -0.0341
1492035720.1186220646,1492035720.1210329533, -0.4301,  0.0858, -0.0109,  0.2769,  0.1610, -0.1356
1492035720.1214089394,1492035720.1238329411, -0.4301,  0.0858, -0.0109,  0.2069,  0.0976, -0.1375
1492035720.1242120266,1492035720.1266419888, -0.4301,  0.0858, -0.0109,  0.2069,  0.0976, -0.1375
1492035720.1270179749,1492035720.1294469833, -0.4301,  0.0858, -0.0109,  0.2069,  0.0976, -0.1375
1492035720.1298229694,1492035720.1322579384, -0.5239, -0.0607,  0.1908,  0.1053,  0.0665, -0.1404
1492035720.1326339245,1492035720.1350579262, -0.5306, -0.0607,  0.1908,  0.1045,  0.0665, -0.1404
1492035720.1354360580,1492035720.1378629208, -0.5306, -0.0607,  0.1908,  0.1045,  0.0665, -0.1404
1492035720.1382389069,1492035720.1406760216, -0.5306, -0.0607,  0.1908,  0.1045,  0.0665, -0.1404
1492035720.1410539150,1492035720.1434819698, -0.5306, -0.0607,  0.1908, -0.0350,  0.0602,  0.0083
1492035720.1438610554,1492035720.1462869644, -0.5306, -0.0607,  0.1908, -0.0350,  0.0602,  0.0083
1492035720.1466639042,1492035720.1490850449, -0.5306, -0.0607,  0.1908, -0.0350,  0.0602,  0.0083
1492035720.1494619846,1492035720.1518979073, -0.5306, -0.2663,  0.3619, -0.0350,  0.0602,  0.0551
1492035720.1522729397,1492035720.1547000408, -0.4248, -0.2663,  0.3619, -0.0398,  0.0740,  0.0583
1492035720.1550769806,1492035720.1575019360, -0.4248, -0.2663,  0.3619, -0.0398,  0.0740,  0.0583
1492035720.1578791142,1492035720.1603109837, -0.4248, -0.2663,  0.3619, -0.0398,  0.0740,  0.0583
1492035720.1606810093,1492035720.1629810333, -0.4248, -0.2663,  0.3619,  0.0384,  0.0569,  0.0188
1492035720.1633489132,1492035720.1656520367, -0.4248, -0.2663,  0.3619,  0.0370,  0.0569,  0.0188
1492035720.1660211086,1492035720.1683189869, -0.4248, -0.2663,  0.3619,  0.0370,  0.0569,  0.0188
1492035720.1686871052,1492035720.1710710526, -0.4248, -0.2663,  0.2213,  0.0370,  0.0569,  0.0188
1492035720.1714470387,1492035720.1738719940, -0.4702, -0.1646,  0.2206,  0.1835, -0.0273, -0.0247
1492035720.1742479801,1492035720.1766750813, -0.4702, -0.1646,  0.2206,  0.1835, -0.0273, -0.0247
1492035720.1770520210,1492035720.1794769764, -0.4702, -0.1646,  0.2206,  0.1835, -0.0273, -0.0247
1492035720.1798539162,1492035720.1822929382, -0.4702, -0.1646,  0.2206,  0.1835, -0.0273, -0.0247
1492035720.1826689243,1492035720.1850929260, -0.4702, -0.1646,  0.2206,  0.3306,  0.0405, -0.0199
1492035720.1854679585,1492035720.1878969669, -0.4702, -0.1646,  0.2206,  0.3306,  0.0405, -0.0199
1492035720.1883800030,1492035720.1908500195, -0.4702, -0.1646, -0.0685,  0.3306,  0.0405, -0.0199
1492035720.1912269592,1492035720.1936550140, -0.4606,  0.4840, -0.0659,  0.3306,  0.2592,  0.3288
1492035720.1940300465,1492035720.1964550018, -0.4606,  0.4840, -0.0659,  0.1037,  0.2610,  0.3288
1492035720.1968319416,1492035720.1992559433, -0.4606,  0.4840, -0.0659,  0.1037,  0.2610,  0.3288
1492035720.1996340752,1492035720.2020668983, -0.4606,  0.4840, -0.0659,  0.1037,  0.2610,  0.3288
1492035720.2024409771,1492035720.2048709393, -0.4606,  0.4840, -0.0659, -0.1546,  0.2103,  0.3364
1492035720.2052481174,1492035720.2076730728, -0.4606,  0.4840, -0.0659, -0.1546,  0.2103,  0.3364
1492035720.2080500126,1492035720.2104671001, -0.4606,  0.4840, -0.0659, -0.1546,  0.2103,  0.3364
1492035720.2108368874,1492035720.2131381035, -0.2438, -0.0106,  0.1662, -0.1546,  0.2103,  0.3364
1492035720.2135059834,1492035720.2158079147, -0.2438, -0.0106,  0.1662, -0.0313,  0.2690,  0.2584
1492035720.2161760330,1492035720.2184739113, -0.2438, -0.0106,  0.1662, -0.0313,  0.2690,  0.2584
1492035720.2188429832,1492035720.2211849689, -0.2438, -0.0106,  0.1662, -0.0313,  0.2690,  0.2584
1492035720.2215549946,1492035720.2238490582, -0.2438, -0.0106,  0.1662, -0.0313,  0.2690,  0.4303
1492035720.2242159843,1492035720.2265191078, -0.2438, -0.0106,  0.1662, -0.0661,  0.2888,  0.4345
1492035720.2268869877,1492035720.2291839123, -0.2438, -0.0106,  0.1662, -0.0661,  0.2888,  0.4345
1492035720.2295529842,1492035720.2319800854, -0.4249, -0.1853,  0.0956, -0.0661,  0.2888,  0.4345
1492035720.2323589325,1492035720.2347869873, -0.4249, -0.1853,  0.0956, -0.0661,  0.2731,  0.7429
1492035720.2351639271,1492035720.2375860214, -0.4249, -0.1853,  0.0956, -0.3582,  0.2708,  0.7429
1492035720.2379620075,1492035720.2404370308, -0.4249, -0.1853,  0.0956, -0.3582,  0.2708,  0.7429
1492035720.2408120632,1492035720.2432360649, -0.4249, -0.1853,  0.0956, -0.3582,  0.2708,  0.7429
1492035720.2436149120,1492035720.2460379601, -0.4249, -0.1853,  0.0956, -0.2338,  0.1984,  0.8170
1492035720.2464139462,1492035720.2488451004, -0.4249, -0.1853,  0.0956, -0.2338,  0.1984,  0.8170
1492035720.2492198944,1492035720.2516560555, -0.9084,  0.0209,  0.1563, -0.2338,  0.1984,  0.8170
1492035720.2520339489,1492035720.2544670105, -0.9084,  0.0209,  0.1563, -0.2338,  0.1984,  0.8170
1492035720.2548420429,1492035720.2572619915, -0.9084,  0.0209,  0.1563,  0.0026,  0.2507,  0.8737
1492035720.2576360703,1492035720.2600660324, -0.9084,  0.0209,  0.1563,  0.0026,  0.2507,  0.8737
1492035720.2604429722,1492035720.2628738880, -0.9084,  0.0209,  0.1563,  0.0026,  0.2507,  0.8737
1492035720.2632510662,1492035720.2656750679, -0.9084,  0.0209,  0.1563,  0.0026,  0.2741,  0.8374
1492035720.2660510540,1492035720.2684800625, -0.9084,  0.0209,  0.1563,  0.2414,  0.2777,  0.8374
1492035720.2688550949,1492035720.2712340355, -0.8542, -0.0582,  0.2058,  0.2414,  0.2777,  0.8374
1492035720.2716059685,1492035720.2739078999, -0.8542, -0.0582,  0.2058,  0.2414,  0.2777,  0.8374
1492035720.2742769718,1492035720.2765789032, -0.8542, -0.0582,  0.2058,  0.4704,  0.3821,  0.7583
1492035720.2769460678,1492035720.2792448997, -0.8542, -0.0582,  0.2058,  0.4704,  0.3821,  0.7583
1492035720.2796120644,1492035720.2820739746, -0.8542, -0.0582,  0.2058,  0.4704,  0.3821,  0.7583
1492035720.2824509144,1492035720.2848789692, -0.8542, -0.0582,  0.2058,  0.4704,  0.3821,  0.7583
1492035720.2852549553,1492035720.2876820564, -0.8542, -0.0582,  0.2058,  0.4573,  0.4604,  0.6673
1492035720.2880580425,1492035720.2904880047, -0.8542, -0.2488,  0.1424,  0.4573,  0.4604,  0.6673
1492035720.2908630371,1492035720.2932910919, -0.6786, -0.2488,  0.1424,  0.4573,  0.4604,  0.6673
1492035720.2936649323,1492035720.2960960865, -0.6786, -0.2488,  0.1424,  0.4573,  0.4604,  0.5876
1492035720.2964720726,1492035720.2989020348, -0.6786, -0.2488,  0.1424,  0.3493,  0.5107,  0.5876
1492035720.2992780209,1492035720.3017089367, -0.6786, -0.2488,  0.1424,  0.3493,  0.5107,  0.5876
1492035720.3020861149,1492035720.3045129776, -0.6786, -0.2488,  0.1424,  0.3493,  0.5107,  0.5876
1492035720.3049969673,1492035720.3074269295, -0.6786, -0.2488,  0.1424,  0.2110,  0.5320,  0.5232
1492035720.3078000546,1492035720.3102369308, -0.6786, -0.3520,  0.0665,  0.2110,  0.5320,  0.5232
1492035720.3106150627,1492035720.3130359650, -0.5168, -0.3520,  0.0665,  0.2110,  0.5320,  0.5232
1492035720.3134119511,1492035720.3158440590, -0.5168, -0.3520,  0.0665,  0.2110,  0.5320,  0.5232
1492035720.3162200451,1492035720.3186459541, -0.5168, -0.3520,  0.0665,  0.0424,  0.4974,  0.4359
1492035720.3190228939,1492035720.3213939667, -0.5168, -0.3520,  0.0665,  0.0424,  0.4974,  0.4359
1492035720.3217608929,1492035720.3240671158, -0.5168, -0.3520,  0.0665,  0.0424,  0.4974,  0.4359
1492035720.3244349957,1492035720.3267340660, -0.5168, -0.3520,  0.0665,  0.0424,  0.4974,  0.3734
1492035720.3271019459,1492035720.3294060230, -0.5168, -0.3520,  0.0899, -0.1341,  0.4315,  0.3697
1492035720.3297750950,1492035720.3322410583, -0.1829, -0.2880,  0.0864, -0.1341,  0.4315,  0.3697
1492035720.3326199055,1492035720.3350429535, -0.1829, -0.2880,  0.0864, -0.1341,  0.4315,  0.3697
1492035720.3354179859,1492035720.3378460407, -0.1829, -0.2880,  0.0864, -0.1341,  0.3256,  0.3113
1492035720.3382210732,1492035720.3406600952, -0.1829, -0.2880,  0.0864, -0.2874,  0.3256,  0.3113
1492035720.3410370350,1492035720.3434679508, -0.1829, -0.2880,  0.0864, -0.2874,  0.3256,  0.3113
1492035720.3438429832,1492035720.3462669849, -0.1829, -0.2880,  0.0864, -0.2874,  0.3256,  0.3113
1492035720.3466429710,1492035720.3490691185, -0.1829, -0.2880,  0.0864, -0.3725,  0.2383,  0.2167
1492035720.3494460583,1492035720.3518819809,  0.0287, -0.1875,  0.1677, -0.3725,  0.2383,  0.2167
1492035720.3522560596,1492035720.3546779156,  0.0287, -0.1875,  0.1677, -0.3725,  0.2383,  0.2167
1492035720.3550529480,1492035720.3574779034,  0.0287, -0.1875,  0.1677, -0.3725,  0.2383,  0.2167
1492035720.3578550816,1492035720.3602869511,  0.0287, -0.1875,  0.1677, -0.3566,  0.1944,  0.0888
1492035720.3606569767,1492035720.3629570007,  0.0287, -0.1875,  0.1677, -0.3566,  0.1944,  0.0888
1492035720.3633251190,1492035720.3656249046,  0.0287, -0.1875,  0.1677, -0.3566,  0.1944,  0.0888
1492035720.3659930229,1492035720.3682889938,  0.0287, -0.1875,  0.1677, -0.3566,  0.1944, -0.0745
1492035720.3686590195,1492035720.3710129261,  0.1573, -0.0807,  0.1463, -0.3102,  0.1888, -0.0745
1492035720.3713829517,1492035720.3736789227,  0.1573, -0.0807,  0.1463, -0.3102,  0.1888, -0.0745
1492035720.3740489483,1492035720.3763461113,  0.1573, -0.0807,  0.1463, -0.3102,  0.1888, -0.0745
1492035720.3767130375,1492035720.3790049553,  0.1573, -0.0807,  0.1463, -0.2867,  0.1930, -0.2555
1492035720.3793749809,1492035720.3817820549,  0.1573, -0.0807,  0.1463, -0.2837,  0.1930, -0.2555
1492035720.3821558952,1492035720.3845789433,  0.1573, -0.0807,  0.1463, -0.2837,  0.1930, -0.2555
1492035720.3849549294,1492035720.3873839378,  0.1573, -0.0807,  0.1463, -0.2837,  0.1930, -0.2555
1492035720.3877589703,1492035720.3902299404,  0.2108,  0.0215,  0.0414, -0.3996,  0.1949, -0.4382
1492035720.3906059265,1492035720.3930308819,  0.2108,  0.0215,  0.0414, -0.3996,  0.1949, -0.4382
1492035720.3934080601,1492035720.3958349228,  0.2108,  0.0215,  0.0414, -0.3996,  0.1949, -0.4382
1492035720.3962099552,1492035720.3986339569,  0.2108,  0.0215,  0.0414, -0.3996,  0.1949, -0.4382
1492035720.3990080357,1492035720.4014439583,  0.2108,  0.0215,  0.0414, -0.4337,  0.2557, -0.6289
1492035720.4018189907,1492035720.4042460918,  0.2108,  0.0215,  0.0414, -0.4337,  0.2557, -0.6289
1492035720.4046230316,1492035720.4070429802,  0.2108,  0.0215,  0.0414, -0.4337,  0.2557, -0.6289
1492035720.4074180126,1492035720.4098460674,  0.3424,  0.0878,  0.2475, -0.4337,  0.1963, -0.8233
1492035720.4102249146,1492035720.4126539230,  0.3424,  0.0878,  0.2475, -0.3081,  0.1963, -0.8233
1492035720.4130330086,1492035720.4154570103,  0.3424,  0.0878,  0.2475, -0.3081,  0.1963, -0.8233
1492035720.4158329964,1492035720.4182620049,  0.3424,  0.0878,  0.2475, -0.3081,  0.1963, -0.8233
1492035720.4186370373,1492035720.4210219383,  0.3424,  0.0878,  0.2475, -0.0744,  0.1354, -0.9747
1492035720.4214990139,1492035720.4237999916,  0.3424,  0.0878,  0.2475, -0.0744,  0.1354, -0.9747
1492035720.4241700172,1492035720.4264700413,  0.3424,  0.0878,  0.2475, -0.0744,  0.1354, -0.9747
1492035720.4268391132,1492035720.4291429520,  0.3424, -0.0581,  0.0402, -0.0744,  0.1354, -0.9747
1492035720.4295110703,1492035720.4319489002,  0.3391, -0.0581,  0.0402,  0.1516,  0.1603, -0.9405
1492035720.4323260784,1492035720.4347538948,  0.3391, -0.0581,  0.0402,  0.1516,  0.1603, -0.9405
1492035720.4351320267,1492035720.4375569820,  0.3391, -0.0581,  0.0402,  0.1516,  0.1603, -0.9405
1492035720.4379320145,1492035720.4403679371,  0.3391, -0.0581,  0.0402,  0.1516,  0.1603, -0.9681
1492035720.4407439232,1492035720.4431719780,  0.3391, -0.0581,  0.0402,  0.3195,  0.0282, -0.9681
1492035720.4435489178,1492035720.4459679127,  0.3391, -0.0581,  0.0402,  0.3195,  0.0282, -0.9681
1492035720.4463438988,1492035720.4487791061,  0.3391, -0.1987,  0.0435,  0.3195,  0.0282, -0.9681
1492035720.4491550922,1492035720.4516229630, -0.0587, -0.2018,  0.0435,  0.1971, -0.2407, -1.0000
1492035720.4519999027,1492035720.4544289112, -0.0587, -0.2018,  0.0435,  0.1971, -0.2407, -1.0000
1492035720.4548048973,1492035720.4572269917, -0.0587, -0.2018,  0.0435,  0.1971, -0.2407, -1.0000
1492035720.4576020241,1492035720.4600989819, -0.0587, -0.2018,  0.0435,  0.1971, -0.2407, -1.0000
1492035720.4604759216,1492035720.4628729820, -0.0587, -0.2018,  0.0435,  0.0222, -0.2571, -1.0000
1492035720.4632480145,1492035720.4656438828, -0.0587, -0.2018,  0.0435,  0.0222, -0.2571, -1.0000
1492035720.4660170078,1492035720.4684801102, -0.0587, -0.1940,  0.0492,  0.0222, -0.2571, -1.0000
1492035720.4688570499,1492035720.4712350368, -0.1007, -0.1882,  0.0492,  0.0222, -0.2571, -1.0000
1492035720.4716050625,1492035720.4739029408, -0.1007, -0.1882,  0.0492,  0.0360, -0.1579, -1.0000
1492035720.4742720127,1492035720.4765810966, -0.1007, -0.1882,  0.0492,  0.0360, -0.1579, -1.0000
1492035720.4769499302,1492035720.4792759418, -0.1007, -0.1882,  0.0492,  0.0360, -0.1579, -1.0000
1492035720.4796469212,1492035720.4819769859, -0.1007, -0.1882,  0.0492, -0.0109, -0.1783, -0.9995
1492035720.4823470116,1492035720.4846479893, -0.1007, -0.1882,  0.0492, -0.0122, -0.1783, -0.9995
1492035720.4850180149,1492035720.4873158932, -0.1007, -0.1882,  0.0492, -0.0122, -0.1783, -0.9995
1492035720.4876859188,1492035720.4900550842, -0.0904, -0.1079,  0.0515, -0.0122, -0.1783, -0.9995
1492035720.4904339314,1492035720.4928619862, -0.0904, -0.1079,  0.0515, -0.0642, -0.2478, -0.9951
1492035720.4932401180,1492035720.4956679344, -0.0904, -0.1079,  0.0515, -0.0642, -0.2478, -0.9951
1492035720.4960451126,1492035720.4984719753, -0.0904, -0.1079,  0.0515, -0.0642, -0.2478, -0.9951
1492035720.4988489151,1492035720.5012810230, -0.0904, -0.1079,  0.0515, -0.0642, -0.2478, -0.9951
1492035720.5016589165,1492035720.5040860176, -0.0904, -0.1079,  0.0515, -0.0480, -0.2708, -0.9995
1492035720.5044620037,1492035720.5068950653, -0.0904, -0.1079,  0.0515, -0.0480, -0.2708, -0.9995
1492035720.5072729588,1492035720.5097010136, -0.0396,  0.0676,  0.1841, -0.0480, -0.2708, -0.9995
1492035720.5100851059,1492035720.5125141144, -0.0396,  0.0676,  0.1841, -0.0480, -0.3333, -1.0000
1492035720.5128920078,1492035720.5153260231, -0.0396,  0.0676,  0.1841,  0.0116, -0.3288, -1.0000
1492035720.5157029629,1492035720.5181269646, -0.0396,  0.0676,  0.1841,  0.0116, -0.3288, -1.0000
1492035720.5185029507,1492035720.5209081173, -0.0396,  0.0676,  0.1841,  0.0116, -0.3288, -1.0000
1492035720.5212769508,1492035720.5235769749, -0.0396,  0.0676,  0.1841,  0.1197, -0.3697, -1.0000
1492035720.5239460468,1492035720.5262470245, -0.0396,  0.0676,  0.1841,  0.1197, -0.3697, -1.0000
1492035720.5266170502,1492035720.5289158821, -0.1053,  0.1469,  0.1879,  0.1197, -0.3697, -1.0000
1492035720.5292849541,1492035720.5316851139, -0.1053,  0.1469,  0.1879,  0.1197, -0.3697, -1.0000
1492035720.5320599079,1492035720.5344820023, -0.1053,  0.1469,  0.1879,  0.2696, -0.4305, -1.0000
1492035720.5349669456,1492035720.5373940468, -0.1053,  0.1469,  0.1879,  0.2696, -0.4305, -1.0000
1492035720.5377709866,1492035720.5402369499, -0.1053,  0.1469,  0.1879,  0.2696, -0.4305, -1.0000
1492035720.5406129360,1492035720.5430440903, -0.1053,  0.1469,  0.1879,  0.2696, -0.4305, -1.0000
1492035720.5434200764,1492035720.5458450317, -0.1053,  0.1469,  0.1879,  0.3503, -0.6076, -1.0000
1492035720.5462219715,1492035720.5486459732, -0.2525,  0.2859, -0.0435,  0.3503, -0.6076, -1.0000
1492035720.5490200520,1492035720.5514578819, -0.2525,  0.2859, -0.0435,  0.3503, -0.6076, -1.0000
1492035720.5518341064,1492035720.5542609692, -0.2525,  0.2859, -0.0435,  0.3618, -0.8344, -0.9769
1492035720.5546410084,1492035720.5570719242, -0.2525,  0.2859, -0.0435,  0.3618, -0.8344, -0.9769
1492035720.5574491024,1492035720.5598750114, -0.2525,  0.2859, -0.0435,  0.3618, -0.8344, -0.9769
1492035720.5602529049,1492035720.5626831055, -0.2525,  0.2859, -0.0435,  0.3618, -0.8344, -0.9769
1492035720.5630590916,1492035720.5654890537, -0.2525,  0.2859, -0.0435,  0.2474, -0.5446, -0.8425
1492035720.5658669472,1492035720.5682959557, -0.8817,  0.5963, -0.1215,  0.2474, -0.5446, -0.8425
1492035720.5686700344,1492035720.5710558891, -0.8817,  0.5963, -0.1215,  0.2474, -0.5446, -0.8425
1492035720.5714249611,1492035720.5737290382, -0.8817,  0.5963, -0.1215,  0.2474, -0.5446, -0.6472
1492035720.5740990639,1492035720.5763940811, -0.8817,  0.5963, -0.1215, -0.1656, -0.2589, -0.6428
1492035720.5767641068,1492035720.5790650845, -0.8817,  0.5963, -0.1215, -0.1656, -0.2589, -0.6428
1492035720.5794339180,1492035720.5818829536, -0.8817,  0.5963, -0.1215, -0.1656, -0.2589, -0.6428
1492035720.5822589397,1492035720.5846800804, -0.8817,  0.5963, -0.1215, -0.1656, -0.4617, -0.1265
1492035720.5850560665,1492035720.5874829292, -0.8817,  0.9998,  0.0702,  0.0128, -0.4617, -0.1265
1492035720.5878601074,1492035720.5903069973, -0.7650,  0.9998,  0.0702,  0.0128, -0.4617, -0.1265
1492035720.5906829834,1492035720.5931100845, -0.7650,  0.9998,  0.0702,  0.0128, -0.4617, -0.1265
1492035720.5934879780,1492035720.5959188938, -0.7650,  0.9998,  0.0702,  0.2296,  0.0300,  0.0121
1492035720.5962951183,1492035720.5987169743, -0.7650,  0.9998,  0.0702,  0.2296,  0.0300,  0.0121
1492035720.5990920067,1492035720.6015279293, -0.7650,  0.9998,  0.0702,  0.2296,  0.0300,  0.0121
1492035720.6019039154,1492035720.6043279171, -0.7650,  0.9998,  0.0702,  0.2296,  0.0300,  0.0121
1492035720.6047060490,1492035720.6071300507, -0.7650,  0.7810, -0.3836,  0.2655,  0.1846,  0.1554
1492035720.6075060368,1492035720.6099369526, -0.3153,  0.7790, -0.3836,  0.2655,  0.1846,  0.1554
1492035720.6103680134,1492035720.6127939224, -0.3153,  0.7790, -0.3836,  0.2655,  0.1846,  0.1554
1492035720.6131699085,1492035720.6156010628, -0.3153,  0.7790, -0.3836,  0.2655,  0.0858,  0.1799
1492035720.6159770489,1492035720.6184051037, -0.3153,  0.7790, -0.3836,  0.3055,  0.0858,  0.1799
1492035720.6187798977,1492035720.6211988926, -0.3153,  0.7790, -0.3836,  0.3055,  0.0858,  0.1799
1492035720.6215679646,1492035720.6238698959, -0.3153,  0.7790, -0.3836,  0.3055,  0.0858,  0.1799
1492035720.6242399216,1492035720.6265399456, -0.3153,  0.7790, -0.5477,  0.2971,  0.0909,  0.1714
1492035720.6269090176,1492035720.6292059422, -0.3330,  0.2921, -0.5477,  0.2971,  0.0909,  0.1714
1492035720.6295759678,1492035720.6320359707, -0.3330,  0.2921, -0.5477,  0.2971,  0.0909,  0.1714
1492035720.6324119568,1492035720.6348369122, -0.3330,  0.2921, -0.5477,  0.2971,  0.0909,  0.1714
1492035720.6352140903,1492035720.6376359463, -0.3330,  0.2921, -0.5477,  0.1033,  0.2571,  0.4868
1492035720.6380119324,1492035720.6404500008, -0.3330,  0.2921, -0.5477,  0.1033,  0.2571,  0.4868
1492035720.6408259869,1492035720.6432518959, -0.3330,  0.2921, -0.5477,  0.1033,  0.2571,  0.4868
1492035720.6436309814,1492035720.6460540295, -0.3330,  0.2921, -0.5477,  0.1033,  0.2571,  0.6789
1492035720.6464290619,1492035720.6488571167, -0.8958,  0.5089,  0.8862, -0.2476, -0.4302,  0.6789
1492035720.6492331028,1492035720.6516640186, -0.8958,  0.5089,  0.8862, -0.2476, -0.4302,  0.6789
1492035720.6521480083,1492035720.6545779705, -0.8958,  0.5089,  0.8862, -0.2476, -0.4302,  0.6789
1492035720.6549520493,1492035720.6573729515, -0.8958,  0.5089,  0.8862,  0.0666, -0.2484,  0.3052
1492035720.6577470303,1492035720.6602048874, -0.8958,  0.5089,  0.8862,  0.0666, -0.2484,  0.3052
1492035720.6605811119,1492035720.6630089283, -0.8958,  0.5089,  0.8862,  0.0666, -0.2484,  0.3052
1492035720.6633849144,1492035720.6658051014, -0.8958,  0.5089,  0.8862,  0.0666, -0.2484,  0.3052
1492035720.6661810875,1492035720.6686069965, -0.4249, -0.0127, -0.0476,  0.5981,  0.2109,  0.2445
1492035720.6689829826,1492035720.6713790894, -0.4249, -0.0127, -0.0476,  0.5981,  0.2109,  0.2445
1492035720.6717479229,1492035720.6740450859, -0.4249, -0.0127, -0.0476,  0.5981,  0.2109,  0.2445
1492035720.6744151115,1492035720.6767179966, -0.4249, -0.0127, -0.0476,  0.5981,  0.2109,  0.9711
1492035720.6770880222,1492035720.6793889999, -0.4249, -0.0127, -0.0476, -0.0984,  0.5910,  0.9748
1492035720.6797559261,1492035720.6821789742, -0.4249, -0.0127, -0.0476, -0.0984,  0.5910,  0.9748
1492035720.6825559139,1492035720.6849880219, -0.4249, -0.0127, -0.0476, -0.0984,  0.5910,  0.9748
1492035720.6853649616,1492035720.6877899170,  0.2936,  0.2576, -0.2598,  0.1907,  0.8535,  0.9565
1492035720.6881649494,1492035720.6906321049,  0.2936,  0.2576, -0.2598,  0.1913,  0.8535,  0.9565
1492035720.6910059452,1492035720.6934280396,  0.2936,  0.2576, -0.2598,  0.1913,  0.8535,  0.9565
1492035720.6938030720,1492035720.6962330341,  0.2936,  0.2576, -0.2598,  0.1913,  0.8535,  0.9565
1492035720.6966071129,1492035720.6990380287,  0.2936,  0.2576, -0.2598,  0.5703,  0.0874,  0.7545
1492035720.6994130611,1492035720.7018489838,  0.2936,  0.2576, -0.2598,  0.5703,  0.0874,  0.7545
1492035720.7022271156,1492035720.7046511173,  0.2936,  0.2576, -0.2598,  0.5703,  0.0874,  0.7545
1492035720.7050259113,1492035720.7074580193, -0.1141,  0.0144, -0.0148,  0.5703,  0.0874,  0.5591
1492035720.7078349590,1492035720.7102649212, -0.1141,  0.0144, -0.0148,  0.4148, -0.5579,  0.5563
1492035720.7106409073,1492035720.7130680084, -0.1141,  0.0144, -0.0148,  0.4148, -0.5579,  0.5563
1492035720.7134420872,1492035720.7158720493, -0.1141,  0.0144, -0.0148,  0.4148, -0.5579,  0.5563
1492035720.7162480354,1492035720.7186660767, -0.1141,  0.0144, -0.0148, -0.0383, -0.2421,  0.1062
1492035720.7190420628,1492035720.7214159966, -0.1141,  0.0144, -0.0148, -0.0327, -0.2421,  0.1062
1492035720.7217879295,1492035720.7240850925, -0.1141,  0.0144, -0.0148, -0.0327, -0.2421,  0.1062
1492035720.7244570255,1492035720.7267539501, -0.3223,  0.1988,  0.0382, -0.0327, -0.2421,  0.1062
1492035720.7271220684,1492035720.7294249535, -0.3223,  0.1988,  0.0382,  0.3047,  0.0646,  0.0462
1492035720.7297921181,1492035720.7321369648, -0.3223,  0.1988,  0.0382,  0.3047,  0.0646,  0.0462
1492035720.7325038910,1492035720.7348010540, -0.3223,  0.1988,  0.0382,  0.3047,  0.0646,  0.0462
1492035720.7351689339,1492035720.7374711037, -0.3223,  0.1988,  0.0382,  0.3047,  0.0646,  0.0462
1492035720.7378399372,1492035720.7401609421, -0.3223,  0.1988,  0.0382,  0.3959,  0.1591,  0.1540
1492035720.7405378819,1492035720.7429680824, -0.3223,  0.1988,  0.0382,  0.3959,  0.1591,  0.1540
1492035720.7433440685,1492035720.7457659245, -0.3223,  0.0581,  0.0966,  0.3959,  0.1591,  0.1540
1492035720.7461431026,1492035720.7485690117, -0.3662,  0.0600,  0.0966,  0.3959,  0.1591,  0.1540
1492035720.7489449978,1492035720.7513740063, -0.3662,  0.0600,  0.0966,  0.2951,  0.1187,  0.1544
1492035720.7517499924,1492035720.7541759014, -0.3662,  0.0600,  0.0966,  0.2951,  0.1187,  0.1544
1492035720.7545530796,1492035720.7569749355, -0.3662,  0.0600,  0.0966,  0.2951,  0.1187,  0.1544
1492035720.7573530674,1492035720.7597820759, -0.3662,  0.0600,  0.0966,  0.3185,  0.2076,  0.1123
1492035720.7601680756,1492035720.7625939846, -0.3662,  0.0600,  0.0966,  0.3140,  0.2076,  0.1123
1492035720.7629699707,1492035720.7654008865, -0.3662,  0.0600,  0.0739,  0.3140,  0.2076,  0.1123
1492035720.7657790184,1492035720.7682039738, -0.5973,  0.0652,  0.0739,  0.3140,  0.2076,  0.1123
1492035720.7686951160,1492035720.7711360455, -0.5973,  0.0652,  0.0739,  0.2207,  0.2009,  0.0637
1492035720.7715110779,1492035720.7739400864, -0.5973,  0.0652,  0.0739,  0.2207,  0.2009,  0.0637
1492035720.7743160725,1492035720.7767438889, -0.5973,  0.0652,  0.0739,  0.2207,  0.2009,  0.0637
1492035720.7771210670,1492035720.7795441151, -0.5973,  0.0652,  0.0739,  0.2207,  0.2009,  0.1106
1492035720.7799210548,1492035720.7822399139, -0.5973,  0.0652,  0.0739,  0.1136,  0.2318,  0.1146
1492035720.7826099396,1492035720.7849121094, -0.5973,  0.0652,  0.2445,  0.1136,  0.2318,  0.1146
1492035720.7852818966,1492035720.7875890732, -0.5768, -0.1183,  0.2445,  0.1136,  0.2318,  0.1146
1492035720.7879569530,1492035720.7902948856, -0.5768, -0.1183,  0.2445,  0.1136,  0.2162,  0.1892
1492035720.7906720638,1492035720.7930951118, -0.5768, -0.1183,  0.2445,  0.0242,  0.2128,  0.1892
1492035720.7934689522,1492035720.7958979607, -0.5768, -0.1183,  0.2445,  0.0242,  0.2128,  0.1892
1492035720.7962739468,1492035720.7986989021, -0.5768, -0.1183,  0.2445,  0.0242,  0.2128,  0.1892
1492035720.7990739346,1492035720.8015050888, -0.5768, -0.1183,  0.2445, -0.0054,  0.1946,  0.1910
1492035720.8018829823,1492035720.8043079376, -0.5768, -0.1183,  0.2445, -0.0054,  0.1946,  0.1910
1492035720.8046860695,1492035720.8071069717, -0.4072, -0.2818,  0.4245, -0.0054,  0.1946,  0.1910
1492035720.8074851036,1492035720.8099119663, -0.4072, -0.2818,  0.4245, -0.0054,  0.1946,  0.1910
1492035720.8103408813,1492035720.8127601147, -0.4072, -0.2818,  0.4245, -0.0422,  0.1880,  0.1010
1492035720.8131339550,1492035720.8155620098, -0.4072, -0.2818,  0.4245, -0.0422,  0.1880,  0.1010
1492035720.8159399033,1492035720.8183679581, -0.4072, -0.2818,  0.4245, -0.0422,  0.1880,  0.1010
1492035720.8187460899,1492035720.8212149143, -0.4072, -0.2818,  0.4245, -0.0422,  0.1411,  0.0072
1492035720.8215920925,1492035720.8240180016, -0.4072, -0.2818,  0.4245,  0.1446,  0.1451,  0.0072
1492035720.8243949413,1492035720.8268220425, -0.4145, -0.1908,  0.0540,  0.1446,  0.1451,  0.0072
1492035720.8271989822,1492035720.8296179771, -0.4145, -0.1908,  0.0540,  0.1446,  0.1451,  0.0072
1492035720.8300030231,1492035720.8323090076, -0.4145, -0.1908,  0.0540,  0.4705,  0.1161, -0.0062
1492035720.8326799870,1492035720.8349790573, -0.4145, -0.1908,  0.0540,  0.4705,  0.1161, -0.0062
1492035720.8353509903,1492035720.8376519680, -0.4145, -0.1908,  0.0540,  0.4705,  0.1161, -0.0062
1492035720.8380229473,1492035720.8403599262, -0.4145, -0.1908,  0.0540,  0.4705,  0.1161, -0.0062
1492035720.8407380581,1492035720.8431689739, -0.4145, -0.1908,  0.0540,  0.3667,  0.2333,  0.2725
1492035720.8435449600,1492035720.8459699154, -0.4931,  0.6201,  0.0763,  0.3667,  0.2333,  0.2725
1492035720.8463480473,1492035720.8487761021, -0.4931,  0.6201,  0.0763,  0.3667,  0.2333,  0.2725
1492035720.8491508961,1492035720.8516290188, -0.4931,  0.6201,  0.0763,  0.3667,  0.2333,  0.4287
1492035720.8520040512,1492035720.8544380665, -0.4931,  0.6201,  0.0763, -0.0509,  0.2056,  0.4285
1492035720.8548159599,1492035720.8572459221, -0.4931,  0.6201,  0.0763, -0.0509,  0.2056,  0.4285
1492035720.8576209545,1492035720.8600571156, -0.4931,  0.6201,  0.0763, -0.0509,  0.2056,  0.4285
1492035720.8604340553,1492035720.8628649712, -0.4931,  0.6201,  0.0763, -0.2083,  0.1958,  0.2044
1492035720.8632440567,1492035720.8656671047, -0.3113,  0.0000,  0.0821, -0.2083,  0.1958,  0.2044
1492035720.8660440445,1492035720.8684759140, -0.3113,  0.0000,  0.0821, -0.2083,  0.1958,  0.2044
1492035720.8688519001,1492035720.8712909222, -0.3113,  0.0000,  0.0821, -0.2083,  0.1958,  0.2044
1492035720.8716690540,1492035720.8740971088, -0.3113,  0.0000,  0.0821, -0.1306,  0.2024,  0.3026
1492035720.8744750023,1492035720.8769071102, -0.3113,  0.0000,  0.0821, -0.1306,  0.2024,  0.3026
1492035720.8772830963,1492035720.8797109127, -0.3113,  0.0000,  0.0821, -0.1306,  0.2024,  0.3026
1492035720.8800959587,1492035720.8823950291, -0.3113,  0.0000,  0.0821, -0.1306,  0.2024,  0.5135
1492035720.8827660084,1492035720.8850688934, -0.3752, -0.2386,  0.3024, -0.4421,  0.2315,  0.5118
1492035720.8855450153,1492035720.8878440857, -0.3752, -0.2386,  0.3024, -0.4421,  0.2315,  0.5118
1492035720.8882119656,1492035720.8905470371, -0.3752, -0.2386,  0.3024, -0.4421,  0.2315,  0.5118
1492035720.8909239769,1492035720.8933498859, -0.3752, -0.2386,  0.3024, -0.4421,  0.1065,  0.7340
1492035720.8937249184,1492035720.8961510658, -0.3752, -0.2386,  0.3024, -0.4072,  0.1085,  0.7340
1492035720.8965280056,1492035720.8989601135, -0.3752, -0.2386,  0.3024, -0.4072,  0.1085,  0.7340
1492035720.8993370533,1492035720.9017639160, -0.3752, -0.2386,  0.3024, -0.4072,  0.1085,  0.7340
1492035720.9021399021,1492035720.9045619965, -0.7423,  0.1166,  0.0345, -0.0647,  0.0778,  0.7998
1492035720.9049398899,1492035720.9073650837, -0.7436,  0.1166,  0.0345, -0.0647,  0.0778,  0.7998
1492035720.9077429771,1492035720.9102098942, -0.7436,  0.1166,  0.0345, -0.0647,  0.0778,  0.7998
1492035720.9105861187,1492035720.9130120277, -0.7436,  0.1166,  0.0345, -0.0647,  0.0778,  0.7998
1492035720.9133889675,1492035720.9158139229, -0.7436,  0.1166,  0.0345,  0.1232,  0.2393,  0.8026
1492035720.9161920547,1492035720.9186189175, -0.7436,  0.1166,  0.0345,  0.1232,  0.2393,  0.8026
1492035720.9189939499,1492035720.9214339256, -0.7436,  0.1166,  0.0345,  0.1232,  0.2393,  0.8026
1492035720.9218111038,1492035720.9242351055, -0.7436, -0.0637,  0.2628,  0.1232,  0.2326,  0.7148
1492035720.9246098995,1492035720.9270329475, -0.7263, -0.0637,  0.2628,  0.2978,  0.2326,  0.7148
1492035720.9274098873,1492035720.9298350811, -0.7263, -0.0637,  0.2628,  0.2978,  0.2326,  0.7148
1492035720.9302198887,1492035720.9325211048, -0.7263, -0.0637,  0.2628,  0.2978,  0.2326,  0.7148
1492035720.9328889847,1492035720.9351859093, -0.7263, -0.0637,  0.2628,  0.5004,  0.2935,  0.6328
1492035720.9355518818,1492035720.9378600121, -0.7263, -0.0637,  0.2628,  0.5004,  0.2935,  0.6328
1492035720.9382278919,1492035720.9405620098, -0.7263, -0.0637,  0.2628,  0.5004,  0.2935,  0.6328
1492035720.9409379959,1492035720.9433660507, -0.7263, -0.0637,  0.1550,  0.5004,  0.2935,  0.6328
1492035720.9437429905,1492035720.9461669922, -0.6218, -0.3390,  0.1550,  0.4839,  0.3607,  0.5550
1492035720.9465429783,1492035720.9489679337, -0.6218, -0.3390,  0.1550,  0.4839,  0.3607,  0.5550
1492035720.9493451118,1492035720.9517738819, -0.6218, -0.3390,  0.1550,  0.4839,  0.3607,  0.5550
1492035720.9521479607,1492035720.9545710087, -0.6218, -0.3390,  0.1550,  0.4839,  0.3607,  0.5472
1492035720.9549469948,1492035720.9573719501, -0.6218, -0.3390,  0.1550,  0.4465,  0.4193,  0.5516
1492035720.9577460289,1492035720.9602160454, -0.6218, -0.3390,  0.1550,  0.4465,  0.4193,  0.5516
1492035720.9605929852,1492035720.9630200863, -0.6218, -0.3390,  0.0612,  0.4465,  0.4193,  0.5516
1492035720.9633979797,1492035720.9658260345, -0.4494, -0.4007,  0.0561,  0.3681,  0.4046,  0.5134
1492035720.9662010670,1492035720.9686241150, -0.4494, -0.4007,  0.0561,  0.3681,  0.4046,  0.5134
1492035720.9690010548,1492035720.9714589119, -0.4494, -0.4007,  0.0561,  0.3681,  0.4046,  0.5134
1492035720.9718339443,1492035720.9742650986, -0.4494, -0.4007,  0.0561,  0.3681,  0.4046,  0.5134
1492035720.9746410847,1492035720.9770679474, -0.4494, -0.4007,  0.0561,  0.1816,  0.3441,  0.4551
1492035720.9774439335,1492035720.9798669815, -0.4494, -0.4007,  0.0561,  0.1816,  0.3441,  0.4551
1492035720.9802498817,1492035720.9825561047, -0.4494, -0.4007,  0.0561,  0.1816,  0.3441,  0.4551
1492035720.9829270840,1492035720.9852249622, -0.3937, -0.3546,  0.1159,  0.1816,  0.3441,  0.4551
1492035720.9855930805,1492035720.9878950119, -0.3937, -0.3546,  0.1159,  0.0042,  0.2802,  0.4069
1492035720.9882628918,1492035720.9906620979, -0.3937, -0.3546,  0.1159,  0.0042,  0.2802,  0.4069
1492035720.9910318851,1492035720.9933290482, -0.3937, -0.3546,  0.1159,  0.0042,  0.2802,  0.4069
1492035720.9937000275,1492035720.9960041046, -0.3937, -0.3546,  0.1159,  0.0042,  0.2802,  0.3378
1492035720.9963760376,1492035720.9986701012, -0.3937, -0.3546,  0.1159, -0.0760,  0.2560,  0.3378
1492035720.9990398884,1492035721.0014629364, -0.3937, -0.3546,  0.1159, -0.0760,  0.2560,  0.3378
1492035721.0019469261,1492035721.0043759346, -0.1639, -0.2891,  0.0417, -0.0760,  0.2560,  0.3378
1492035721.0047550201,1492035721.0071780682, -0.1639, -0.2891,  0.0417, -0.1289,  0.2135,  0.2223
1492035721.0075550079,1492035721.0100290775, -0.1639, -0.2891,  0.0417, -0.1289,  0.2135,  0.2223
1492035721.0104050636,1492035721.0128359795, -0.1639, -0.2891,  0.0417, -0.1289,  0.2135,  0.2223
1492035721.0132100582,1492035721.0156369209, -0.1639, -0.2891,  0.0417, -0.1289,  0.2135,  0.2223
1492035721.0160160065,1492035721.0184490681, -0.1639, -0.2891,  0.0417, -0.2178,  0.1418,  0.1059
1492035721.0188260078,1492035721.0212669373, -0.1639, -0.2891,  0.0417, -0.2178,  0.1418,  0.1059
1492035721.0216429234,1492035721.0240709782,  0.0855, -0.2323,  0.1185, -0.2178,  0.1418,  0.1059
1492035721.0244500637,1492035721.0268781185,  0.0855, -0.2323,  0.1185, -0.2178,  0.1418, -0.0162
1492035721.0272541046,1492035721.0296769142,  0.0855, -0.2323,  0.1185, -0.2848,  0.0792, -0.0162
1492035721.0300610065,1492035721.0323669910,  0.0855, -0.2323,  0.1185, -0.2848,  0.0792, -0.0162
1492035721.0327360630,1492035721.0350370407,  0.0855, -0.2323,  0.1185, -0.2848,  0.0792, -0.0162
1492035721.0354080200,1492035721.0377070904,  0.0855, -0.2323,  0.1185, -0.2807,  0.0561, -0.2014
1492035721.0380780697,1492035721.0404450893,  0.0855, -0.2323,  0.1185, -0.2807,  0.0561, -0.2014
1492035721.0408210754,1492035721.0432450771,  0.1792, -0.1272,  0.0510, -0.2807,  0.0561, -0.2014
1492035721.0436210632,1492035721.0460479259,  0.1774, -0.1272,  0.0510, -0.2807,  0.0561, -0.2014
1492035721.0464260578,1492035721.0488560200,  0.1774, -0.1272,  0.0510, -0.3267,  0.0465, -0.4030
1492035721.0492339134,1492035721.0516669750,  0.1774, -0.1272,  0.0510, -0.3267,  0.0465, -0.4030
1492035721.0520429611,1492035721.0544719696,  0.1774, -0.1272,  0.0510, -0.3267,  0.0465, -0.4030
1492035721.0548501015,1492035721.0572729111,  0.1774, -0.1272,  0.0510, -0.3267,  0.0465, -0.4030
1492035721.0576510429,1492035721.0600919724,  0.1774, -0.1272,  0.0510, -0.3971,  0.1067, -0.6071
1492035721.0604701042,1492035721.0629000664,  0.2008,  0.0384,  0.0619, -0.3971,  0.1067, -0.6071
1492035721.0632770061,1492035721.0657029152,  0.2006,  0.0384,  0.0619, -0.3971,  0.1067, -0.6071
1492035721.0660820007,1492035721.0685110092,  0.2006,  0.0384,  0.0619, -0.3580, -0.0092, -0.8321
1492035721.0688900948,1492035721.0713279247,  0.2006,  0.0384,  0.0619, -0.3544, -0.0092, -0.8321
1492035721.0717039108,1492035721.0741319656,  0.2006,  0.0384,  0.0619, -0.3544, -0.0092, -0.8321
1492035721.0745100975,1492035721.0769410133,  0.2006,  0.0384,  0.0619, -0.3544, -0.0092, -0.8321
1492035721.0773200989,1492035721.0797460079,  0.2006,  0.0384,  0.0619, -0.1983, -0.0705, -0.9921
1492035721.0801320076,1492035721.0824310780,  0.2006,  0.1121,  0.1234, -0.1983, -0.0705, -0.9921
1492035721.0828020573,1492035721.0851049423,  0.1827,  0.1121,  0.1234, -0.1983, -0.0705, -0.9921
1492035721.0854771137,1492035721.0877730846,  0.1827,  0.1121,  0.1234, -0.1983, -0.0705, -0.9921
1492035721.0881431103,1492035721.0904860497,  0.1827,  0.1121,  0.1234,  0.1049, -0.0948, -1.0000
1492035721.0908639431,1492035721.0932950974,  0.1827,  0.1121,  0.1234,  0.1049, -0.0948, -1.0000
1492035721.0936720371,1492035721.0960950851,  0.1827,  0.1121,  0.1234,  0.1049, -0.0948, -1.0000
1492035721.0964720249,1492035721.0989019871,  0.1827,  0.1121,  0.1234,  0.1049, -0.0948, -1.0000
1492035721.0992789268,1492035721.1017160416,  0.1827,  0.1121,  0.0765,  0.2351, -0.2198, -1.0000
1492035721.1020948887,1492035721.1045219898, -0.0990, -0.1622,  0.0720,  0.2351, -0.2198, -1.0000
1492035721.1048989296,1492035721.1073269844, -0.0990, -0.1622,  0.0720,  0.2351, -0.2198, -1.0000
1492035721.1077020168,1492035721.1101338863, -0.0990, -0.1622,  0.0720,  0.2139, -0.3094, -1.0000
1492035721.1105120182,1492035721.1129379272, -0.0990, -0.1622,  0.0720,  0.2139, -0.3094, -1.0000
1492035721.1133151054,1492035721.1157429218, -0.0990, -0.1622,  0.0720,  0.2139, -0.3094, -1.0000
1492035721.1162209511,1492035721.1186439991, -0.0990, -0.1622,  0.0720,  0.2139, -0.3094, -1.0000
1492035721.1190218925,1492035721.1214590073, -0.0990, -0.1622,  0.1032,  0.1170, -0.3497, -1.0000
1492035721.1218349934,1492035721.1242599487, -0.1875, -0.2567,  0.1040,  0.1170, -0.3497, -1.0000
1492035721.1246359348,1492035721.1270639896, -0.1875, -0.2567,  0.1040,  0.1170, -0.3497, -1.0000
1492035721.1274399757,1492035721.1298730373, -0.1875, -0.2567,  0.1040,  0.1170, -0.3810, -0.9998
1492035721.1302530766,1492035721.1325490475, -0.1875, -0.2567,  0.1040,  0.0572, -0.3782, -0.9998
1492035721.1329200268,1492035721.1352190971, -0.1875, -0.2567,  0.1040,  0.0572, -0.3782, -0.9998
1492035721.1355879307,1492035721.1378920078, -0.1875, -0.2567,  0.1040,  0.0572, -0.3782, -0.9998
1492035721.1382610798,1492035721.1406080723, -0.1875, -0.2567,  0.1040, -0.0287, -0.4280, -0.9903
1492035721.1409749985,1492035721.1432800293, -0.1935, -0.1484,  0.0981, -0.0303, -0.4280, -0.9903
1492035721.1436510086,1492035721.1459500790, -0.1935, -0.1484,  0.0981, -0.0303, -0.4280, -0.9903
1492035721.1463220119,1492035721.1486189365, -0.1935, -0.1484,  0.0981, -0.0303, -0.4280, -0.9903
1492035721.1489880085,1492035721.1513779163, -0.1935, -0.1484,  0.0981, -0.1346, -0.4676, -0.9955
1492035721.1517550945,1492035721.1541850567, -0.1935, -0.1484,  0.0981, -0.1346, -0.4676, -0.9955
1492035721.1545600891,1492035721.1569869518, -0.1935, -0.1484,  0.0981, -0.1346, -0.4676, -0.9955
1492035721.1573650837,1492035721.1597900391, -0.1935, -0.1484,  0.0981, -0.1346, -0.4676, -0.9955
1492035721.1601719856,1492035721.1625990868, -0.2809,  0.0439,  0.1219, -0.1550, -0.5109, -0.9999
1492035721.1629750729,1492035721.1654059887, -0.2809,  0.0439,  0.1219, -0.1550, -0.5109, -0.9999
1492035721.1657819748,1492035721.1682050228, -0.2809,  0.0439,  0.1219, -0.1550, -0.5109, -0.9999
1492035721.1685819626,1492035721.1710209846, -0.2809,  0.0439,  0.1219, -0.1550, -0.5421, -1.0000
1492035721.1713979244,1492035721.1738319397, -0.2809,  0.0439,  0.1219, -0.0644, -0.5392, -1.0000
1492035721.1742079258,1492035721.1766309738, -0.2809,  0.0439,  0.1219, -0.0644, -0.5392, -1.0000
1492035721.1770091057,1492035721.1794359684, -0.2809,  0.0439,  0.1219, -0.0644, -0.5392, -1.0000
1492035721.1798129082,1492035721.1822540760, -0.5557,  0.4092,  0.0025, -0.0994, -0.5971, -0.9896
1492035721.1826310158,1492035721.1850600243, -0.5557,  0.4092,  0.0025, -0.0994, -0.5971, -0.9896
1492035721.1854400635,1492035721.1878669262, -0.5557,  0.4092,  0.0025, -0.0994, -0.5971, -0.9896
1492035721.1882429123,1492035721.1906509399, -0.5557,  0.4092,  0.0025, -0.0994, -0.5971, -0.9896
1492035721.1910200119,1492035721.1933169365, -0.5557,  0.4092,  0.0025, -0.0893, -0.4743, -0.9059
1492035721.1936869621,1492035721.1959879398, -0.5557,  0.4092,  0.0025, -0.0893, -0.4743, -0.9059
1492035721.1963589191,1492035721.1986548901, -0.5557,  0.4092,  0.0025, -0.0893, -0.4743, -0.9059
1492035721.1990270615,1492035721.2014520168, -0.5557,  0.7257, -0.1797, -0.0893, -0.4743, -0.7965
1492035721.2018270493,1492035721.2042479515, -0.6457,  0.7257, -0.1797, -0.0994, -0.3712, -0.7946
1492035721.2046229839,1492035721.2070469856, -0.6457,  0.7257, -0.1797, -0.0994, -0.3712, -0.7946
1492035721.2074239254,1492035721.2098550797, -0.6457,  0.7257, -0.1797, -0.0994, -0.3712, -0.7946
1492035721.2102420330,1492035721.2126700878, -0.6457,  0.7257, -0.1797, -0.0916, -0.3010, -0.7579
1492035721.2130460739,1492035721.2154750824, -0.6457,  0.7257, -0.1797, -0.0901, -0.3010, -0.7579
1492035721.2158520222,1492035721.2182788849, -0.6457,  0.7257, -0.1797, -0.0901, -0.3010, -0.7579
1492035721.2186570168,1492035721.2210860252, -0.6457,  0.9927, -0.1689, -0.0901, -0.3010, -0.7579
1492035721.2214610577,1492035721.2238860130, -0.8455,  0.9927, -0.1689,  0.0081, -0.2397, -0.6208
1492035721.2242629528,1492035721.2266969681, -0.8455,  0.9927, -0.1689,  0.0081, -0.2397, -0.6208
1492035721.2270739079,1492035721.2295010090, -0.8455,  0.9927, -0.1689,  0.0081, -0.2397, -0.6208
1492035721.2298789024,1492035721.2323169708, -0.8455,  0.9927, -0.1689,  0.0081, -0.2397, -0.3318
1492035721.2328000069,1492035721.2352259159, -0.8455,  0.9927, -0.1689,  0.0306, -0.1146, -0.3338
1492035721.2356030941,1492035721.2380259037, -0.8455,  0.9927, -0.1689,  0.0306, -0.1146, -0.3338
1492035721.2384040356,1492035721.2408080101, -0.8455,  0.9771, -0.2637,  0.0306, -0.1146, -0.3338
1492035721.2411789894,1492035721.2434790134, -0.3831,  0.9831, -0.2637,  0.0775, -0.0071, -0.1458
1492035721.2438499928,1492035721.2461490631, -0.3831,  0.9831, -0.2637,  0.0715, -0.0071, -0.1458
1492035721.2465209961,1492035721.2488250732, -0.3831,  0.9831, -0.2637,  0.0715, -0.0071, -0.1458
1492035721.2491939068,1492035721.2515439987, -0.3831,  0.9831, -0.2637,  0.0715, -0.0071, -0.1458
1492035721.2519159317,1492035721.2542190552, -0.3831,  0.9831, -0.2637,  0.1310,  0.0530,  0.0144
1492035721.2545878887,1492035721.2568829060, -0.3831,  0.9831, -0.2637,  0.1310,  0.0530,  0.0144
1492035721.2572529316,1492035721.2595479488, -0.3831,  0.9831, -0.2637,  0.1310,  0.0530,  0.0144
1492035721.2599179745,1492035721.2623400688, -0.1315,  0.6789, -0.2411,  0.1310,  0.0530,  0.0144
1492035721.2627170086,1492035721.2651410103, -0.1315,  0.6789, -0.2411,  0.1450,  0.0591,  0.1239
1492035721.2655179501,1492035721.2679359913, -0.1315,  0.6789, -0.2411,  0.1450,  0.0591,  0.1239
1492035721.2683129311,1492035721.2707459927, -0.1315,  0.6789, -0.2411,  0.1450,  0.0591,  0.1239
1492035721.2711229324,1492035721.2735450268, -0.1315,  0.6789, -0.2411,  0.1450,  0.0591,  0.2333
1492035721.2739210129,1492035721.2763528824, -0.1315,  0.6789, -0.2411,  0.0963,  0.0277,  0.2301
1492035721.2767300606,1492035721.2791559696, -0.1315,  0.6789, -0.2411,  0.0963,  0.0277,  0.2301
1492035721.2795319557,1492035721.2819559574, -0.0671,  0.3527, -0.1370,  0.0963,  0.0277,  0.2301
1492035721.2823340893,1492035721.2847609520, -0.0671,  0.3527, -0.1370,  0.1273,  0.0358,  0.2744
1492035721.2851369381,1492035721.2875559330, -0.0671,  0.3527, -0.1370,  0.1273,  0.0358,  0.2744
1492035721.2879319191,1492035721.2903409004, -0.0671,  0.3527, -0.1370,  0.1273,  0.0358,  0.2744
1492035721.2907099724,1492035721.2930140495, -0.0671,  0.3527, -0.1370,  0.1273,  0.0358,  0.2744
1492035721.2933809757,1492035721.2956800461, -0.0671,  0.3527, -0.1370,  0.1198, -0.0029,  0.1458
1492035721.2960491180,1492035721.2983579636, -0.0671,  0.3527, -0.1370,  0.1198, -0.0029,  0.1458
1492035721.2987289429,1492035721.3010990620, -0.2533,  0.0097, -0.4730,  0.1198, -0.0029,  0.1458
1492035721.3014779091,1492035721.3039019108, -0.2533,  0.0097, -0.4730,  0.1198, -0.0029,  0.1458
1492035721.3042790890,1492035721.3067100048, -0.2533,  0.0097, -0.4730,  0.1246,  0.3020,  0.1208
1492035721.3070878983,1492035721.3095109463, -0.2533,  0.0097, -0.4730,  0.1246,  0.3020,  0.1208
1492035721.3098909855,1492035721.3123219013, -0.2533,  0.0097, -0.4730,  0.1246,  0.3020,  0.1208
1492035721.3126990795,1492035721.3151268959, -0.2533,  0.0097, -0.4730,  0.1246, -0.1277,  0.8193
1492035721.3155028820,1492035721.3179268837, -0.2533,  0.0097, -0.4730, -0.3143, -0.1269,  0.8193
1492035721.3183031082,1492035721.3207409382, -0.9978,  0.5045,  0.6789, -0.3143, -0.1269,  0.8193
1492035721.3211181164,1492035721.3235399723, -0.9978,  0.5045,  0.6789, -0.3143, -0.1269,  0.8193
1492035721.3239150047,1492035721.3263409138, -0.9978,  0.5045,  0.6789, -0.2986, -0.2630,  0.4866
1492035721.3267159462,1492035721.3291449547, -0.9978,  0.5045,  0.6789, -0.2986, -0.2630,  0.4866
1492035721.3295209408,1492035721.3319509029, -0.9978,  0.5045,  0.6789, -0.2986, -0.2630,  0.4866
1492035721.3323259354,1492035721.3347480297, -0.9978,  0.5045,  0.6789, -0.2986, -0.2630,  0.4866
1492035721.3351221085,1492035721.3375470638, -0.9978,  0.5045,  0.6789,  0.0751,  0.2007,  0.3653
1492035721.3379240036,1492035721.3403320312, -0.3416,  0.5177, -0.5395,  0.0751,  0.2007,  0.3653
1492035721.3407049179,1492035721.3430120945, -0.3360,  0.5177, -0.5395,  0.0751,  0.2007,  0.3653
1492035721.3433818817,1492035721.3456809521, -0.3360,  0.5177, -0.5395,  0.0751,  0.2007,  0.9359
1492035721.3460500240,1492035721.3483519554, -0.3360,  0.5177, -0.5395,  0.0724,  0.6054,  0.9359
1492035721.3488268852,1492035721.3512499332, -0.3360,  0.5177, -0.5395,  0.0724,  0.6054,  0.9359
1492035721.3516280651,1492035721.3540520668, -0.3360,  0.5177, -0.5395,  0.0724,  0.6054,  0.9359
1492035721.3544280529,1492035721.3568530083, -0.3360,  0.5177, -0.5395,  0.3073,  0.8076,  0.8929
1492035721.3572289944,1492035721.3596549034, -0.3360, -0.0995, -0.2556,  0.3073,  0.8076,  0.8929
1492035721.3600430489,1492035721.3624598980,  0.2046, -0.0968, -0.2556,  0.3073,  0.8076,  0.8929
1492035721.3628380299,1492035721.3652698994,  0.2046, -0.0968, -0.2556,  0.3073,  0.8076,  0.8929
1492035721.3656458855,1492035721.3680729866,  0.2046, -0.0968, -0.2556,  0.3086,  0.0402,  0.7525
1492035721.3684511185,1492035721.3708848953,  0.2046, -0.0968, -0.2556,  0.3086,  0.0402,  0.7525
1492035721.3712620735,1492035721.3736879826,  0.2046, -0.0968, -0.2556,  0.3086,  0.0402,  0.7525
1492035721.3740639687,1492035721.3764879704,  0.2046, -0.0968, -0.2556,  0.3086,  0.0402,  0.4182
1492035721.3768639565,1492035721.3792910576,  0.2046, -0.0968,  0.0905, -0.0695, -0.5653,  0.4182
1492035721.3796679974,1492035721.3820049763, -0.2302,  0.2208,  0.0905, -0.0695, -0.5653,  0.4182
1492035721.3823759556,1492035721.3846740723, -0.2302,  0.2208,  0.0905, -0.0695, -0.5653,  0.4182
1492035721.3850409985,1492035721.3873469830, -0.2302,  0.2208,  0.0905, -0.0695,  0.0317,  0.0369
1492035721.3877151012,1492035721.3900620937, -0.2302,  0.2208,  0.0905,  0.3264,  0.0317,  0.0369
1492035721.3904399872,1492035721.3928639889, -0.2302,  0.2208,  0.0905,  0.3264,  0.0317,  0.0369
1492035721.3932399750,1492035721.3956730366, -0.2302,  0.2208,  0.0905,  0.3264,  0.0317,  0.0369
1492035721.3960499763,1492035721.3984711170, -0.2302,  0.2208,  0.0905,  0.4654,  0.0563,  0.1937
1492035721.3988471031,1492035721.4012770653, -0.4023,  0.1725, -0.0097,  0.4654,  0.0563,  0.1937
1492035721.4016530514,1492035721.4040870667, -0.4023,  0.1725, -0.0097,  0.4654,  0.0563,  0.1937
1492035721.4044649601,1492035721.4068889618, -0.4023,  0.1725, -0.0097,  0.4654,  0.0563,  0.1937
1492035721.4072659016,1492035721.4096910954, -0.4023,  0.1725, -0.0097,  0.3986,  0.1666,  0.1635
1492035721.4100770950,1492035721.4125010967, -0.4023,  0.1725, -0.0097,  0.3986,  0.1666,  0.1635
1492035721.4128758907,1492035721.4153048992, -0.4023,  0.1725, -0.0097,  0.3986,  0.1666,  0.1635
1492035721.4156820774,1492035721.4181110859, -0.4023,  0.1725, -0.0097,  0.3986,  0.0884, -0.0487
1492035721.4184889793,1492035721.4209330082, -0.5745,  0.0329,  0.0135,  0.3674,  0.0885, -0.0487
1492035721.4213099480,1492035721.4237370491, -0.5745,  0.0329,  0.0135,  0.3674,  0.0885, -0.0487
1492035721.4241139889,1492035721.4265460968, -0.5745,  0.0329,  0.0135,  0.3674,  0.0885, -0.0487
1492035721.4269220829,1492035721.4293439388, -0.5745,  0.0329,  0.0135,  0.2357,  0.1374, -0.0195
1492035721.4297189713,1492035721.4320509434, -0.5745,  0.0329,  0.0135,  0.2357,  0.1374, -0.0195
1492035721.4324200153,1492035721.4347229004, -0.5745,  0.0329,  0.0135,  0.2357,  0.1374, -0.0195
1492035721.4350919724,1492035721.4373900890, -0.5745,  0.0329,  0.0135,  0.2357,  0.1374, -0.0195
1492035721.4377579689,1492035721.4400920868, -0.6329, -0.1674,  0.1886,  0.1227,  0.1892,  0.2022
1492035721.4404680729,1492035721.4428889751, -0.6329, -0.1674,  0.1886,  0.1227,  0.1892,  0.2022
1492035721.4432640076,1492035721.4456899166, -0.6329, -0.1674,  0.1886,  0.1227,  0.1892,  0.2022
1492035721.4460659027,1492035721.4484949112, -0.6329, -0.1674,  0.1886,  0.1227,  0.1892,  0.2413
1492035721.4488730431,1492035721.4513070583, -0.6329, -0.1674,  0.1886,  0.0482,  0.1591,  0.2357
1492035721.4516808987,1492035721.4541070461, -0.6329, -0.1674,  0.1886,  0.0482,  0.1591,  0.2357
1492035721.4544820786,1492035721.4569048882, -0.6329, -0.1674,  0.1886,  0.0482,  0.1591,  0.2357
1492035721.4572799206,1492035721.4597001076, -0.4170, -0.3555,  0.3495,  0.0281,  0.1703,  0.1462
1492035721.4600870609,1492035721.4625198841, -0.4170, -0.3555,  0.3495,  0.0281,  0.1703,  0.1462
1492035721.4628961086,1492035721.4653289318, -0.4170, -0.3555,  0.3495,  0.0281,  0.1703,  0.1462
1492035721.4658100605,1492035721.4682381153, -0.4170, -0.3555,  0.3495,  0.0281,  0.1703,  0.1462
1492035721.4686141014,1492035721.4710800648, -0.4170, -0.3555,  0.3495, -0.0164,  0.1203,  0.0849
1492035721.4714589119,1492035721.4738900661, -0.4170, -0.3555,  0.3495, -0.0164,  0.1203,  0.0849
1492035721.4742670059,1492035721.4767000675, -0.4170, -0.3555,  0.3495, -0.0164,  0.1203,  0.0849
1492035721.4770789146,1492035721.4795019627, -0.5921, -0.1104, -0.0843, -0.0164,  0.1203, -0.0085
1492035721.4798810482,1492035721.4822010994, -0.5921, -0.1104, -0.0843,  0.2832, -0.0117, -0.0085
1492035721.4825720787,1492035721.4848799706, -0.5921, -0.1104, -0.0843,  0.2832, -0.0117, -0.0085
1492035721.4852499962,1492035721.4875500202, -0.5921, -0.1104, -0.0843,  0.2832, -0.0117, -0.0085
1492035721.4879219532,1492035721.4902579784, -0.5921, -0.1104, -0.0843,  0.2832,  0.1270,  0.0047
1492035721.4906280041,1492035721.4929299355, -0.5921, -0.1104, -0.0843,  0.4440,  0.1270,  0.0047
1492035721.4932999611,1492035721.4955990314, -0.5921, -0.1104, -0.0843,  0.4440,  0.1270,  0.0047
1492035721.4959690571,1492035721.4982750416, -0.5921,  0.3773,  0.1578,  0.4440,  0.1270,  0.0047
1492035721.4986441135,1492035721.5010600090, -0.4329,  0.3773,  0.1578, -0.0742,  0.1927,  0.2700
1492035721.5014379025,1492035721.5038681030, -0.4329,  0.3773,  0.1578, -0.0742,  0.1927,  0.2700
1492035721.5042440891,1492035721.5066719055, -0.4329,  0.3773,  0.1578, -0.0742,  0.1927,  0.2700
1492035721.5070478916,1492035721.5094668865, -0.4329,  0.3773,  0.1578, -0.0742,  0.1927,  0.2700
1492035721.5098431110,1492035721.5122799873, -0.4329,  0.3773,  0.1578, -0.1129,  0.3080,  0.2740
1492035721.5126569271,1492035721.5150830746, -0.4329,  0.3773,  0.1578, -0.1129,  0.3080,  0.2740
1492035721.5154590607,1492035721.5178859234, -0.4329,  0.0102,  0.1968, -0.1129,  0.3080,  0.2740
1492035721.5182619095,1492035721.5207030773, -0.2444,  0.0127,  0.1968, -0.1129,  0.3080,  0.2932
1492035721.5210800171,1492035721.5235059261, -0.2444,  0.0127,  0.1968,  0.0094,  0.3103,  0.2932
1492035721.5238831043,1492035721.5263049603, -0.2444,  0.0127,  0.1968,  0.0094,  0.3103,  0.2932
1492035721.5266819000,1492035721.5291080475, -0.2444,  0.0127,  0.1968,  0.0094,  0.3103,  0.2932
1492035721.5294849873,1492035721.5318291187, -0.2444,  0.0127,  0.1968, -0.1492,  0.2366,  0.5662
1492035721.5321969986,1492035721.5344960690, -0.2444,  0.0127,  0.1968, -0.1492,  0.2366,  0.5662
1492035721.5348660946,1492035721.5371699333, -0.2444,  0.0127,  0.1422, -0.1492,  0.2366,  0.5662
1492035721.5375390053,1492035721.5398380756, -0.2944,  0.1304,  0.1457, -0.1492,  0.2366,  0.5662
1492035721.5402109623,1492035721.5426409245, -0.2944,  0.1304,  0.1457, -0.4267,  0.1710,  0.7230
1492035721.5430169106,1492035721.5454380512, -0.2944,  0.1304,  0.1457, -0.4267,  0.1710,  0.7230
1492035721.5458149910,1492035721.5482380390, -0.2944,  0.1304,  0.1457, -0.4267,  0.1710,  0.7230
1492035721.5486121178,1492035721.5510559082, -0.2944,  0.1304,  0.1457, -0.4267,  0.1710,  0.7230
1492035721.5514318943,1492035721.5538539886, -0.2944,  0.1304,  0.1457, -0.3568,  0.0878,  0.7727
1492035721.5542290211,1492035721.5566549301, -0.2944,  0.1304,  0.1457, -0.3568,  0.0878,  0.7727
1492035721.5570321083,1492035721.5594599247, -0.6754,  0.1458,  0.0241, -0.3568,  0.0878,  0.7727
1492035721.5598380566,1492035721.5622689724, -0.6754,  0.1458,  0.0241, -0.3568,  0.1515,  0.7939
1492035721.5626430511,1492035721.5650730133, -0.6754,  0.1458,  0.0241, -0.0233,  0.1515,  0.7939
1492035721.5654489994,1492035721.5678739548, -0.6754,  0.1458,  0.0241, -0.0233,  0.1515,  0.7939
1492035721.5682480335,1492035721.5706570148, -0.6754,  0.1458,  0.0241, -0.0233,  0.1515,  0.7939
1492035721.5710260868,1492035721.5733289719, -0.6754,  0.1458,  0.0241,  0.2155,  0.1666,  0.7841
1492035721.5736970901,1492035721.5759949684, -0.6754,  0.1458,  0.0241,  0.2155,  0.1666,  0.7841
1492035721.5763618946,1492035721.5786590576, -0.7343, -0.0522,  0.2391,  0.2155,  0.1666,  0.7841
1492035721.5790278912,1492035721.5814480782, -0.7343, -0.0522,  0.2391,  0.2155,  0.1666,  0.7841
1492035721.5819358826,1492035721.5843598843, -0.7343, -0.0522,  0.2391,  0.4052,  0.1727,  0.7175
1492035721.5847361088,1492035721.5871679783, -0.7343, -0.0522,  0.2391,  0.4052,  0.1727,  0.7175
1492035721.5875449181,1492035721.5899679661, -0.7343, -0.0522,  0.2391,  0.4052,  0.1727,  0.7175
1492035721.5903909206,1492035721.5928120613, -0.7343, -0.0522,  0.2391,  0.4052,  0.1727,  0.6843
1492035721.5931880474,1492035721.5956139565, -0.7343, -0.0522,  0.2391,  0.5962,  0.2501,  0.6843
1492035721.5959899426,1492035721.5984139442, -0.7250, -0.1913,  0.2196,  0.5962,  0.2501,  0.6843
1492035721.5987899303,1492035721.6012279987, -0.7250, -0.1913,  0.2196,  0.5962,  0.2501,  0.6843
1492035721.6016020775,1492035721.6040370464, -0.7250, -0.1913,  0.2196,  0.6063,  0.3204,  0.6796
1492035721.6044120789,1492035721.6068379879, -0.7250, -0.1913,  0.2196,  0.6063,  0.3204,  0.6796
1492035721.6072130203,1492035721.6096470356, -0.7250, -0.1913,  0.2196,  0.6063,  0.3204,  0.6796
1492035721.6100320816,1492035721.6124529839, -0.7250, -0.1913,  0.2196,  0.6063,  0.3204,  0.6796
1492035721.6128270626,1492035721.6152510643, -0.7250, -0.1913,  0.2196,  0.5384,  0.3867,  0.5942
1492035721.6156249046,1492035721.6180570126, -0.6402, -0.2741,  0.1390,  0.5384,  0.3867,  0.5942
1492035721.6184349060,1492035721.6208329201, -0.6402, -0.2741,  0.1390,  0.5384,  0.3867,  0.5942
1492035721.6212029457,1492035721.6235051155, -0.6402, -0.2741,  0.1390,  0.5384,  0.3867,  0.5094
1492035721.6238729954,1492035721.6261789799, -0.6402, -0.2741,  0.1390,  0.4084,  0.4281,  0.5094
1492035721.6265449524,1492035721.6288430691, -0.6402, -0.2741,  0.1390,  0.4084,  0.4281,  0.5094
1492035721.6292099953,1492035721.6315600872, -0.6402, -0.2741,  0.1390,  0.4084,  0.4281,  0.5094
1492035721.6319289207,1492035721.6342198849, -0.6402, -0.2741,  0.1390,  0.4084,  0.4521,  0.5051
1492035721.6345870495,1492035721.6368839741, -0.6402, -0.2989,  0.0822,  0.2767,  0.4521,  0.5051
1492035721.6372520924,1492035721.6395530701, -0.4854, -0.2989,  0.0822,  0.2767,  0.4521,  0.5051
1492035721.6399199963,1492035721.6423320770, -0.4854, -0.2989,  0.0822,  0.2767,  0.4521,  0.5051
1492035721.6427049637,1492035721.6451148987, -0.4854, -0.2989,  0.0822,  0.1901,  0.3866,  0.4717
1492035721.6454899311,1492035721.6479060650, -0.4854, -0.2989,  0.0822,  0.1901,  0.3866,  0.4717
1492035721.6482799053,1492035721.6507000923, -0.4854, -0.2989,  0.0822,  0.1901,  0.3866,  0.4717
1492035721.6510729790,1492035721.6534879208, -0.4854, -0.2989,  0.0822,  0.1901,  0.3866,  0.4717
1492035721.6538629532,1492035721.6562719345, -0.4854, -0.2989,  0.1048,  0.1080,  0.3292,  0.4072
1492035721.6566469669,1492035721.6590580940, -0.3656, -0.3369,  0.1048,  0.1080,  0.3292,  0.4072
1492035721.6594328880,1492035721.6618580818, -0.3656, -0.3369,  0.1048,  0.1080,  0.3292,  0.4072
1492035721.6622340679,1492035721.6646380424, -0.3656, -0.3369,  0.1048,  0.1080,  0.3292,  0.3195
1492035721.6650149822,1492035721.6674160957, -0.3656, -0.3369,  0.1048,  0.0826,  0.2556,  0.3195
1492035721.6677899361,1492035721.6702139378, -0.3656, -0.3369,  0.1048,  0.0826,  0.2556,  0.3195
1492035721.6705889702,1492035721.6729979515, -0.3656, -0.3369,  0.1048,  0.0826,  0.2556,  0.3195
1492035721.6733739376,1492035721.6757841110, -0.3656, -0.3369,  0.2220, -0.0298,  0.1542,  0.2656
1492035721.6761610508,1492035721.6785659790,  0.0966, -0.4198,  0.2208, -0.0298,  0.1542,  0.2656
1492035721.6789419651,1492035721.6812961102,  0.0966, -0.4198,  0.2208, -0.0298,  0.1542,  0.2656
1492035721.6816649437,1492035721.6839699745,  0.0966, -0.4198,  0.2208, -0.0298,  0.1542,  0.2656
1492035721.6843569279,1492035721.6882829666,  0.0966, -0.4198,  0.2208, -0.2197,  0.0706,  0.0309
1492035721.6886649132,1492035721.6910591125,  0.0966, -0.4198,  0.2208, -0.2197,  0.0706,  0.0309
1492035721.6914279461,1492035721.6937229633,  0.0966, -0.4198,  0.2208, -0.2197,  0.0706,  0.0309
1492035721.6940929890,1492035721.6963870525,  0.0966, -0.3464,  0.1005, -0.2109,  0.0668, -0.1971
1492035721.6968901157,1492035721.6991899014,  0.1778, -0.3464,  0.1005, -0.2109,  0.0668, -0.1971
1492035721.6995611191,1492035721.7018620968,  0.1778, -0.3464,  0.1005, -0.2109,  0.0668, -0.1971
1492035721.7022309303,1492035721.7045240402,  0.1778, -0.3464,  0.1005, -0.2109,  0.0668, -0.1971
1492035721.7048950195,1492035721.7071919441,  0.1778, -0.3464,  0.1005, -0.4015,  0.0208, -0.4022
1492035721.7075629234,1492035721.7098560333,  0.1778, -0.3464,  0.1005, -0.4015,  0.0208, -0.4022
1492035721.7102220058,1492035721.7125220299,  0.1778, -0.3464,  0.1005, -0.4015,  0.0208, -0.4022
1492035721.7128911018,1492035721.7151958942,  0.1778, -0.3464,  0.1005, -0.4015,  0.0208, -0.4022
1492035721.7155671120,1492035721.7178640366,  0.1971, -0.0054, -0.0791, -0.5678,  0.1263, -0.6377
1492035721.7182319164,1492035721.7206060886,  0.1971, -0.0054, -0.0791, -0.5678,  0.1263, -0.6377
1492035721.7209761143,1492035721.7232730389,  0.1971, -0.0054, -0.0791, -0.5678,  0.1263, -0.6377
1492035721.7236430645,1492035721.7259368896,  0.1971, -0.0054, -0.0791, -0.5678,  0.1263, -0.6377
1492035721.7263050079,1492035721.7286100388,  0.1971, -0.0054, -0.0791, -0.6725,  0.0764, -0.8398
1492035721.7289779186,1492035721.7312819958,  0.1971, -0.0054, -0.0791, -0.6725,  0.0764, -0.8398
1492035721.7316520214,1492035721.7339460850,  0.1971, -0.0054, -0.0791, -0.6725,  0.0764, -0.8398
1492035721.7343149185,1492035721.7366180420,  0.3177,  0.1338,  0.3415, -0.6725,  0.0764, -0.9898
1492035721.7369871140,1492035721.7392830849,  0.3177,  0.1338,  0.3415, -0.4623, -0.0297, -0.9898
1492035721.7396509647,1492035721.7419829369,  0.3177,  0.1338,  0.3415, -0.4623, -0.0297, -0.9898
1492035721.7423510551,1492035721.7446420193,  0.3177,  0.1338,  0.3415, -0.4623, -0.0297, -0.9898
1492035721.7450110912,1492035721.7473089695,  0.3177,  0.1338,  0.3415, -0.4623,  0.0719, -1.0000
1492035721.7476789951,1492035721.7500560284,  0.3177,  0.1338,  0.3415,  0.0486,  0.0729, -1.0000
1492035721.7504251003,1492035721.7527201176,  0.3177,  0.1338,  0.3415,  0.0486,  0.0729, -1.0000
1492035721.7530899048,1492035721.7553880215,  0.3177, -0.1396,  0.0237,  0.0486,  0.0729, -1.0000
1492035721.7557549477,1492035721.7580559254,  0.0278, -0.1364,  0.0237,  0.2385, -0.0405, -1.0000
1492035721.7584240437,1492035721.7607269287,  0.0278, -0.1364,  0.0237,  0.2385, -0.0405, -1.0000
1492035721.7610960007,1492035721.7633988857,  0.0278, -0.1364,  0.0237,  0.2385, -0.0405, -1.0000
1492035721.7637670040,1492035721.7660670280,  0.0278, -0.1364,  0.0237,  0.2385, -0.0405, -1.0000
1492035721.7664370537,1492035721.7687349319,  0.0278, -0.1364,  0.0237,  0.0830, -0.3003, -1.0000
1492035721.7691030502,1492035721.7714118958,  0.0278, -0.1364,  0.0237,  0.0830, -0.3003, -1.0000
1492035721.7717819214,1492035721.7740809917,  0.0278, -0.1364,  0.0237,  0.0830, -0.3003, -1.0000
1492035721.7744479179,1492035721.7767429352, -0.1571, -0.1996,  0.1823,  0.0830, -0.3003, -1.0000
1492035721.7771110535,1492035721.7794110775, -0.1571, -0.1996,  0.1823, -0.1828, -0.4196, -1.0000
1492035721.7797820568,1492035721.7821168900, -0.1571, -0.1996,  0.1823, -0.1828, -0.4196, -1.0000
1492035721.7824850082,1492035721.7847878933, -0.1571, -0.1996,  0.1823, -0.1828, -0.4196, -1.0000
1492035721.7851550579,1492035721.7874569893, -0.1571, -0.1996,  0.1823, -0.1828, -0.4196, -1.0000
1492035721.7878229618,1492035721.7901420593, -0.1571, -0.1996,  0.1823, -0.1523, -0.3373, -0.9993
1492035721.7905170918,1492035721.7929489613, -0.1571, -0.1996,  0.1823, -0.1523, -0.3373, -0.9993
1492035721.7933280468,1492035721.7957520485, -0.1960, -0.1751,  0.1521, -0.1523, -0.3373, -0.9993
1492035721.7961270809,1492035721.7985560894, -0.1960, -0.1751,  0.1521, -0.1523, -0.3373, -0.9474
1492035721.7989308834,1492035721.8013710976, -0.1960, -0.1751,  0.1521, -0.1122, -0.4284, -0.9474
1492035721.8017489910,1492035721.8041698933, -0.1960, -0.1751,  0.1521, -0.1122, -0.4284, -0.9474
1492035721.8045480251,1492035721.8069798946, -0.1960, -0.1751,  0.1521, -0.1122, -0.4284, -0.9474
1492035721.8073570728,1492035721.8097810745, -0.1960, -0.1751,  0.1521, -0.1514, -0.4484, -0.8912
1492035721.8102691174,1492035721.8126950264, -0.1960, -0.1751,  0.1521, -0.1514, -0.4484, -0.8912
1492035721.8130750656,1492035721.8154990673, -0.1960, -0.0018,  0.2480, -0.1514, -0.4484, -0.8912
1492035721.8158769608,1492035721.8182990551, -0.2023, -0.0018,  0.2480, -0.1514, -0.4484, -0.8912
1492035721.8186769485,1492035721.8211140633, -0.2023, -0.0018,  0.2480, -0.0709, -0.4738, -0.9116
1492035721.8214919567,1492035721.8239250183, -0.2023, -0.0018,  0.2480, -0.0709, -0.4738, -0.9116
1492035721.8243029118,1492035721.8267300129, -0.2023, -0.0018,  0.2480, -0.0709, -0.4738, -0.9116
1492035721.8271079063,1492035721.8295390606, -0.2023, -0.0018,  0.2480, -0.0709, -0.5284, -0.9877
1492035721.8299160004,1492035721.8322360516, -0.2023, -0.0018,  0.2480,  0.0223, -0.5300, -0.9877
1492035721.8326060772,1492035721.8349061012, -0.2023,  0.0707,  0.1948,  0.0223, -0.5300, -0.9877
1492035721.8352749348,1492035721.8375821114, -0.3240,  0.0707,  0.1948,  0.0223, -0.5300, -0.9877
1492035721.8379490376,1492035721.8402709961, -0.3240,  0.0707,  0.1948,  0.1630, -0.5786, -1.0000
1492035721.8406479359,1492035721.8430759907, -0.3240,  0.0707,  0.1948,  0.1572, -0.5786, -1.0000
1492035721.8434550762,1492035721.8458850384, -0.3240,  0.0707,  0.1948,  0.1572, -0.5786, -1.0000
1492035721.8462619781,1492035721.8486840725, -0.3240,  0.0707,  0.1948,  0.1572, -0.5786, -1.0000
1492035721.8490591049,1492035721.8514969349, -0.3240,  0.0707,  0.1948,  0.2017, -0.6152, -0.9988
1492035721.8518741131,1492035721.8543028831, -0.3240,  0.0707, -0.0362,  0.2017, -0.6152, -0.9988
1492035721.8546800613,1492035721.8571081161, -0.5246,  0.2823, -0.0362,  0.2017, -0.6152, -0.9988
1492035721.8574841022,1492035721.8599150181, -0.5246,  0.2823, -0.0362,  0.2017, -0.6152, -0.9675
1492035721.8603470325,1492035721.8627729416, -0.5246,  0.2823, -0.0362,  0.1115, -0.5328, -0.9617
1492035721.8631479740,1492035721.8655750751, -0.5246,  0.2823, -0.0362,  0.1115, -0.5328, -0.9617
1492035721.8659529686,1492035721.8683860302, -0.5246,  0.2823, -0.0362,  0.1115, -0.5328, -0.9617
1492035721.8687629700,1492035721.8712339401, -0.5246,  0.2823, -0.0362,  0.0881, -0.4885, -0.8816
1492035721.8716099262,1492035721.8740379810, -0.5246,  0.2823, -0.2293,  0.0881, -0.4885, -0.8816
1492035721.8744149208,1492035721.8768401146, -0.6761,  0.4843, -0.2293,  0.0881, -0.4885, -0.8816
1492035721.8772189617,1492035721.8796401024, -0.6761,  0.4843, -0.2293,  0.0881, -0.4885, -0.8816
1492035721.8800280094,1492035721.8823339939, -0.6761,  0.4843, -0.2293,  0.0695, -0.4438, -0.8115
1492035721.8827030659,1492035721.8850069046, -0.6761,  0.4843, -0.2293,  0.0695, -0.4438, -0.8115
1492035721.8853750229,1492035721.8876709938, -0.6761,  0.4843, -0.2293,  0.0695, -0.4438, -0.8115
1492035721.8880391121,1492035721.8904359341, -0.6761,  0.4843, -0.2293,  0.0695, -0.4438, -0.8115
1492035721.8908140659,1492035721.8932418823, -0.6761,  0.4843, -0.2293,  0.0803, -0.3685, -0.6674
1492035721.8936190605,1492035721.8960490227, -0.9946,  0.8457, -0.2397,  0.0803, -0.3685, -0.6674
1492035721.8964219093,1492035721.8988430500, -0.9946,  0.8457, -0.2397,  0.0803, -0.3685, -0.6674
1492035721.8992209435,1492035721.9016571045, -0.9946,  0.8457, -0.2397,  0.0803, -0.2591, -0.4683
1492035721.9020349979,1492035721.9044630527, -0.9946,  0.8457, -0.2397,  0.1437, -0.2626, -0.4683
1492035721.9048380852,1492035721.9072659016, -0.9946,  0.8457, -0.2397,  0.1437, -0.2626, -0.4683
1492035721.9076399803,1492035721.9106700420, -0.9946,  0.8457, -0.2397,  0.1437, -0.2626, -0.4683
1492035721.9110438824,1492035721.9133429527, -0.9946,  0.8457, -0.2944,  0.0787, -0.1226, -0.3195
1492035721.9137110710,1492035721.9160079956, -0.5027,  0.8286, -0.2956,  0.0787, -0.1226, -0.3195
1492035721.9163799286,1492035721.9186799526, -0.5027,  0.8286, -0.2956,  0.0787, -0.1226, -0.3195
1492035721.9190499783,1492035721.9213929176, -0.5027,  0.8286, -0.2956,  0.0787, -0.1226, -0.3195
1492035721.9217629433,1492035721.9240579605, -0.5027,  0.8286, -0.2956, -0.0523,  0.0427, -0.1236
1492035721.9244260788,1492035721.9267249107, -0.5027,  0.8286, -0.2956, -0.0523,  0.0427, -0.1236
1492035721.9272189140,1492035721.9295129776, -0.5027,  0.8286, -0.2956, -0.0523,  0.0427, -0.1236
1492035721.9298830032,1492035721.9323201180, -0.5027,  0.8286, -0.2956, -0.0523,  0.0427,  0.0678
1492035721.9326920509,1492035721.9349870682, -0.1449,  0.6993, -0.3593, -0.0819,  0.1559,  0.0678
1492035721.9353559017,1492035721.9376499653, -0.1449,  0.6993, -0.3593, -0.0819,  0.1559,  0.0678
1492035721.9380180836,1492035721.9404339790, -0.1449,  0.6993, -0.3593, -0.0819,  0.1559,  0.0678
1492035721.9408199787,1492035721.9432430267, -0.1449,  0.6993, -0.3593,  0.0509,  0.1377,  0.2296
1492035721.9436221123,1492035721.9460310936, -0.1449,  0.6993, -0.3593,  0.0489,  0.1377,  0.2296
1492035721.9464058876,1492035721.9488201141, -0.1449,  0.6993, -0.3593,  0.0489,  0.1377,  0.2296
1492035721.9491939545,1492035721.9516999722, -0.1449,  0.6993, -0.3593,  0.0489,  0.1377,  0.2296
1492035721.9520759583,1492035721.9544839859, -0.2460,  0.4295, -0.2899,  0.1798,  0.0943,  0.2764
1492035721.9548609257,1492035721.9572739601, -0.2460,  0.4295, -0.2899,  0.1798,  0.0943,  0.2764
1492035721.9576470852,1492035721.9600689411, -0.2460,  0.4295, -0.2899,  0.1798,  0.0943,  0.2764
1492035721.9604420662,1492035721.9629359245, -0.2460,  0.4295, -0.2899,  0.1798,  0.0943,  0.1983
1492035721.9633131027,1492035721.9657208920, -0.2460,  0.4295, -0.2899,  0.1790,  0.0599,  0.1962
1492035721.9660971165,1492035721.9685060978, -0.2460,  0.4295, -0.2899,  0.1790,  0.0599,  0.1962
1492035721.9688830376,1492035721.9713399410, -0.2460,  0.4295, -0.2899,  0.1790,  0.0599,  0.1962
1492035721.9717180729,1492035721.9741480350, -0.3183,  0.0917, -0.2774,  0.0482,  0.1763,  0.0738
1492035721.9745240211,1492035721.9769508839, -0.3183,  0.0917, -0.2774,  0.0482,  0.1763,  0.0738
1492035721.9773249626,1492035721.9797520638, -0.3183,  0.0917, -0.2774,  0.0482,  0.1763,  0.0738
1492035721.9801359177,1492035721.9824349880, -0.3183,  0.0917, -0.2774,  0.0482,  0.1763,  0.0738
1492035721.9828050137,1492035721.9851090908, -0.3183,  0.0917, -0.2774, -0.1662, -0.1210,  0.6925
1492035721.9854800701,1492035721.9877700806, -0.3183,  0.0917, -0.2774, -0.1662, -0.1210,  0.6925
1492035721.9881389141,1492035721.9905838966, -0.3183,  0.0917, -0.2774, -0.1662, -0.1210,  0.6925
1492035721.9909551144,1492035721.9932539463, -0.3183,  0.6702,  0.4522, -0.1662, -0.1210,  0.6925
1492035721.9936239719,1492035721.9959208965, -0.9971,  0.6702,  0.4522, -0.1785, -0.2212,  0.9657
1492035721.9962899685,1492035721.9985809326, -0.9971,  0.6702,  0.4522, -0.1785, -0.2212,  0.9657
1492035721.9989480972,1492035722.0014109612, -0.9971,  0.6702,  0.4522, -0.1785, -0.2212,  0.9657
1492035722.0017879009,1492035722.0042130947, -0.9971,  0.6702,  0.4522, -0.1785, -0.2212,  0.2728
1492035722.0045890808,1492035722.0070130825, -0.9971,  0.6702,  0.4522, -0.1189,  0.4199,  0.2728
1492035722.0073881149,1492035722.0098071098, -0.9971,  0.6702,  0.4522, -0.1189,  0.4199,  0.2728
1492035722.0101931095,1492035722.0126159191, -0.9971,  0.6702, -0.3559, -0.1189,  0.4199,  0.2728
1492035722.0129919052,1492035722.0154190063, -0.1234,  0.3605, -0.3559, -0.0693,  0.3383,  0.5563
1492035722.0157968998,1492035722.0182209015, -0.1234,  0.3605, -0.3559, -0.0693,  0.3383,  0.5563
1492035722.0185968876,1492035722.0210309029, -0.1234,  0.3605, -0.3559, -0.0693,  0.3383,  0.5563
1492035722.0214059353,1492035722.0238289833, -0.1234,  0.3605, -0.3559, -0.0693,  0.3383,  0.5563
1492035722.0242071152,1492035722.0266349316, -0.1234,  0.3605, -0.3559, -0.1275,  0.8981,  0.9946
1492035722.0270099640,1492035722.0294339657, -0.1234,  0.3605, -0.3559, -0.1275,  0.8981,  0.9946
1492035722.0298109055,1492035722.0322470665, -0.1234,  0.3605, -0.2309, -0.1275,  0.8981,  0.9946
1492035722.0326240063,1492035722.0350499153,  0.3096,  0.1775, -0.2321, -0.1275,  0.8981,  0.9838
1492035722.0354239941,1492035722.0378460884,  0.3096,  0.1775, -0.2321,  0.2478,  0.5839,  0.9838
1492035722.0382208824,1492035722.0406270027,  0.3096,  0.1775, -0.2321,  0.2478,  0.5839,  0.9838
1492035722.0409929752,1492035722.0432960987,  0.3096,  0.1775, -0.2321,  0.2478,  0.5839,  0.9838
1492035722.0437750816,1492035722.0460789204,  0.3096,  0.1775, -0.2321,  0.0056, -0.1945,  0.7129
1492035722.0464479923,1492035722.0487439632,  0.3096,  0.1775, -0.2321,  0.0008, -0.1945,  0.7129
1492035722.0491120815,1492035722.0515038967,  0.3096,  0.1775, -0.2321,  0.0008, -0.1945,  0.7129
1492035722.0518798828,1492035722.0543019772, -0.2270,  0.0829,  0.0973,  0.0008, -0.1945,  0.7129
1492035722.0546789169,1492035722.0571019650, -0.2270,  0.0829,  0.0973,  0.3130, -0.3108,  0.1750
1492035722.0574789047,1492035722.0599019527, -0.2270,  0.0829,  0.0973,  0.3130, -0.3108,  0.1750
1492035722.0603230000,1492035722.0627460480, -0.2270,  0.0829,  0.0973,  0.3130, -0.3108,  0.1750
1492035722.0631260872,1492035722.0655529499, -0.2270,  0.0829,  0.0973,  0.3130, -0.3108,  0.1750
1492035722.0659289360,1492035722.0683519840, -0.2270,  0.0829,  0.0973,  0.2539, -0.0608,  0.0461
1492035722.0687289238,1492035722.0711610317, -0.2270,  0.0829,  0.0973,  0.2539, -0.0608,  0.0461
1492035722.0715389252,1492035722.0739650726, -0.2474,  0.2066,  0.0486,  0.2539, -0.0608,  0.0461
