timestamp_before,timestamp_after,accel_x,accel_y,accel_z,gyro_x,gyro_y,gryo_z
1491853221.3455679417,1491853221.3478679657, -0.1883,  0.0085, -0.0085, -0.0020,  0.0054, -0.0091
1491853221.3483200073,1491853221.3506200314, -0.1889,  0.0083, -0.0060, -0.0020,  0.0054, -0.0091
1491853221.3509960175,1491853221.3532919884, -0.1889,  0.0083, -0.0060, -0.0020,  0.0054, -0.0091
1491853221.3536620140,1491853221.3561670780, -0.1889,  0.0083, -0.0060, -0.0020,  0.0054, -0.0091
1491853221.3565390110,1491853221.3588340282, -0.1889,  0.0083, -0.0060,  0.0007,  0.0062, -0.0095
1491853221.3592059612,1491853221.3615050316, -0.1889,  0.0083, -0.0060,  0.0007,  0.0062, -0.0095
1491853221.3618760109,1491853221.3642520905, -0.1889,  0.0083, -0.0060,  0.0007,  0.0062, -0.0095
1491853221.3646349907,1491853221.3669390678, -0.1889,  0.0083, -0.0060,  0.0007,  0.0062, -0.0099
1491853221.3673100471,1491853221.3696050644, -0.1879,  0.0066, -0.0089,  0.0020,  0.0062, -0.0099
1491853221.3699769974,1491853221.3722779751, -0.1879,  0.0066, -0.0089,  0.0020,  0.0062, -0.0099
1491853221.3726489544,1491853221.3749499321, -0.1879,  0.0066, -0.0089,  0.0020,  0.0062, -0.0099
1491853221.3753209114,1491853221.3776209354, -0.1879,  0.0066, -0.0089,  0.0020,  0.0056, -0.0109
1491853221.3779919147,1491853221.3802900314, -0.1879,  0.0066, -0.0089,  0.0011,  0.0056, -0.0109
1491853221.3806619644,1491853221.3829569817, -0.1879,  0.0066, -0.0089,  0.0011,  0.0056, -0.0109
1491853221.3833301067,1491853221.3857610226, -0.1879,  0.0066, -0.0089,  0.0011,  0.0056, -0.0109
1491853221.3861401081,1491853221.3885660172, -0.1879,  0.0077, -0.0121, -0.0011,  0.0034, -0.0115
1491853221.3889451027,1491853221.3913679123, -0.1863,  0.0077, -0.0121, -0.0011,  0.0034, -0.0115
1491853221.3917460442,1491853221.3941841125, -0.1863,  0.0077, -0.0121, -0.0011,  0.0034, -0.0115
1491853221.3945550919,1491853221.3968501091, -0.1863,  0.0077, -0.0121, -0.0011,  0.0034, -0.0115
1491853221.3972220421,1491853221.3995289803, -0.1863,  0.0077, -0.0121, -0.0056,  0.0025, -0.0128
1491853221.3998990059,1491853221.4022030830, -0.1863,  0.0077, -0.0121, -0.0056,  0.0025, -0.0128
1491853221.4025731087,1491853221.4050800800, -0.1863,  0.0077, -0.0121, -0.0056,  0.0025, -0.0128
1491853221.4054510593,1491853221.4077610970, -0.1863,  0.0077, -0.0111, -0.0056,  0.0025, -0.0148
1491853221.4081308842,1491853221.4104321003, -0.1877,  0.0064, -0.0111, -0.0154,  0.0009, -0.0148
1491853221.4108030796,1491853221.4131019115, -0.1877,  0.0064, -0.0111, -0.0154,  0.0009, -0.0148
1491853221.4134728909,1491853221.4159259796, -0.1877,  0.0064, -0.0111, -0.0154,  0.0009, -0.0148
1491853221.4163019657,1491853221.4187259674, -0.1877,  0.0064, -0.0111, -0.0232,  0.0001, -0.0143
1491853221.4191050529,1491853221.4215469360, -0.1877,  0.0064, -0.0111, -0.0164,  0.0001, -0.0143
1491853221.4219250679,1491853221.4243490696, -0.1877,  0.0064, -0.0111, -0.0164,  0.0001, -0.0143
1491853221.4247200489,1491853221.4270150661, -0.1877,  0.0064, -0.0111, -0.0164,  0.0001, -0.0143
1491853221.4273838997,1491853221.4296851158, -0.1886,  0.0060, -0.0110, -0.0155, -0.0020, -0.0156
1491853221.4300549030,1491853221.4323570728, -0.1886,  0.0060, -0.0110, -0.0155, -0.0020, -0.0156
1491853221.4327280521,1491853221.4351150990, -0.1886,  0.0060, -0.0110, -0.0155, -0.0020, -0.0156
1491853221.4354939461,1491853221.4379220009, -0.1886,  0.0060, -0.0110, -0.0155, -0.0020, -0.0156
1491853221.4382989407,1491853221.4407238960, -0.1886,  0.0060, -0.0110, -0.0148, -0.0029, -0.0187
1491853221.4411010742,1491853221.4435269833, -0.1886,  0.0060, -0.0110, -0.0148, -0.0029, -0.0187
1491853221.4439051151,1491853221.4463410378, -0.1886,  0.0060, -0.0110, -0.0148, -0.0029, -0.0187
1491853221.4467179775,1491853221.4491438866, -0.1866,  0.0100, -0.0122, -0.0148, -0.0029, -0.0193
1491853221.4495201111,1491853221.4519529343, -0.1866,  0.0100, -0.0122, -0.0104, -0.0020, -0.0193
1491853221.4523310661,1491853221.4547619820, -0.1866,  0.0100, -0.0122, -0.0104, -0.0020, -0.0193
1491853221.4551329613,1491853221.4574339390, -0.1866,  0.0100, -0.0122, -0.0104, -0.0020, -0.0193
1491853221.4578020573,1491853221.4601039886, -0.1866,  0.0100, -0.0122, -0.0075, -0.0010, -0.0186
1491853221.4606320858,1491853221.4629340172, -0.1866,  0.0100, -0.0122, -0.0075, -0.0010, -0.0186
1491853221.4633059502,1491853221.4656400681, -0.1866,  0.0100, -0.0122, -0.0075, -0.0010, -0.0186
1491853221.4660120010,1491853221.4683070183, -0.1885,  0.0056, -0.0095, -0.0075, -0.0010, -0.0186
1491853221.4686779976,1491853221.4709761143, -0.1885,  0.0056, -0.0095, -0.0047,  0.0006, -0.0189
1491853221.4713449478,1491853221.4736471176, -0.1885,  0.0056, -0.0095, -0.0047,  0.0006, -0.0189
1491853221.4741621017,1491853221.4764699936, -0.1885,  0.0056, -0.0095, -0.0047,  0.0006, -0.0189
1491853221.4768409729,1491853221.4791440964, -0.1885,  0.0056, -0.0095, -0.0047,  0.0006, -0.0189
1491853221.4795160294,1491853221.4818150997, -0.1885,  0.0056, -0.0095, -0.0039,  0.0009, -0.0189
1491853221.4821848869,1491853221.4844870567, -0.1885,  0.0056, -0.0095, -0.0039,  0.0009, -0.0189
1491853221.4848570824,1491853221.4871609211, -0.1885,  0.0056, -0.0103, -0.0039,  0.0009, -0.0189
1491853221.4875299931,1491853221.4898319244, -0.1887,  0.0060, -0.0103, -0.0039,  0.0009, -0.0189
1491853221.4902029037,1491853221.4924991131, -0.1887,  0.0060, -0.0103, -0.0060,  0.0012, -0.0189
1491853221.4928700924,1491853221.4954109192, -0.1887,  0.0060, -0.0103, -0.0060,  0.0012, -0.0189
1491853221.4957919121,1491853221.4982130527, -0.1887,  0.0060, -0.0103, -0.0060,  0.0012, -0.0189
1491853221.4985918999,1491853221.5010130405, -0.1887,  0.0060, -0.0103, -0.0060,  0.0012, -0.0200
1491853221.5013918877,1491853221.5038189888, -0.1887,  0.0060, -0.0103, -0.0075,  0.0012, -0.0200
1491853221.5042090416,1491853221.5066339970, -0.1887,  0.0060, -0.0103, -0.0075,  0.0012, -0.0200
1491853221.5070118904,1491853221.5094408989, -0.1880,  0.0057, -0.0100, -0.0075,  0.0012, -0.0200
1491853221.5098199844,1491853221.5122420788, -0.1880,  0.0057, -0.0100, -0.0089,  0.0006, -0.0208
1491853221.5126209259,1491853221.5150899887, -0.1880,  0.0057, -0.0100, -0.0089,  0.0006, -0.0208
1491853221.5154669285,1491853221.5179479122, -0.1880,  0.0057, -0.0100, -0.0089,  0.0006, -0.0208
1491853221.5183370113,1491853221.5206511021, -0.1880,  0.0057, -0.0100, -0.0089,  0.0006, -0.0208
1491853221.5210230350,1491853221.5233259201, -0.1880,  0.0057, -0.0100, -0.0101,  0.0008, -0.0237
1491853221.5236959457,1491853221.5261540413, -0.1880,  0.0057, -0.0100, -0.0101,  0.0008, -0.0237
1491853221.5265250206,1491853221.5288259983, -0.1861,  0.0109, -0.0132, -0.0101,  0.0008, -0.0237
1491853221.5291950703,1491853221.5315830708, -0.1861,  0.0109, -0.0132, -0.0101,  0.0008, -0.0276
1491853221.5319519043,1491853221.5350770950, -0.1861,  0.0109, -0.0132, -0.0065,  0.0020, -0.0276
1491853221.5354499817,1491853221.5377550125, -0.1861,  0.0109, -0.0132, -0.0065,  0.0020, -0.0276
1491853221.5381269455,1491853221.5404219627, -0.1861,  0.0109, -0.0132, -0.0065,  0.0020, -0.0276
1491853221.5407900810,1491853221.5430870056, -0.1861,  0.0109, -0.0132, -0.0048,  0.0011, -0.0282
1491853221.5434570312,1491853221.5458970070, -0.1861,  0.0109, -0.0132, -0.0048,  0.0011, -0.0282
1491853221.5462749004,1491853221.5486989021, -0.1892,  0.0073, -0.0121, -0.0048,  0.0011, -0.0282
1491853221.5490770340,1491853221.5515010357, -0.1892,  0.0073, -0.0121, -0.0048,  0.0011, -0.0282
1491853221.5518789291,1491853221.5543160439, -0.1892,  0.0073, -0.0121, -0.0015,  0.0013, -0.0300
1491853221.5546960831,1491853221.5571150780, -0.1892,  0.0073, -0.0121, -0.0015,  0.0013, -0.0300
1491853221.5574939251,1491853221.5599229336, -0.1892,  0.0073, -0.0121, -0.0015,  0.0013, -0.0300
1491853221.5603001118,1491853221.5627229214, -0.1892,  0.0073, -0.0121, -0.0015,  0.0017, -0.0325
1491853221.5631010532,1491853221.5654630661, -0.1892,  0.0073, -0.0121, -0.0003,  0.0017, -0.0325
1491853221.5658340454,1491853221.5681400299, -0.1900,  0.0130, -0.0063, -0.0003,  0.0017, -0.0325
1491853221.5685110092,1491853221.5708138943, -0.1900,  0.0130, -0.0063, -0.0003,  0.0017, -0.0325
1491853221.5711851120,1491853221.5734789371, -0.1900,  0.0130, -0.0063,  0.0028,  0.0035, -0.0350
1491853221.5739660263,1491853221.5762801170, -0.1900,  0.0130, -0.0063,  0.0028,  0.0035, -0.0350
1491853221.5766499043,1491853221.5789461136, -0.1900,  0.0130, -0.0063,  0.0028,  0.0035, -0.0350
1491853221.5793180466,1491853221.5816209316, -0.1900,  0.0130, -0.0063,  0.0028,  0.0035, -0.0350
1491853221.5819909573,1491853221.5844290257, -0.1900,  0.0130, -0.0063,  0.0062,  0.0057, -0.0373
1491853221.5848000050,1491853221.5870990753, -0.1876,  0.0023, -0.0020,  0.0062,  0.0057, -0.0373
1491853221.5874700546,1491853221.5897760391, -0.1876,  0.0023, -0.0020,  0.0062,  0.0057, -0.0373
1491853221.5901451111,1491853221.5924420357, -0.1876,  0.0023, -0.0020,  0.0062,  0.0057, -0.0373
1491853221.5928130150,1491853221.5953309536, -0.1876,  0.0023, -0.0020,  0.0055,  0.0078, -0.0373
1491853221.5957109928,1491853221.5981400013, -0.1876,  0.0023, -0.0020,  0.0055,  0.0078, -0.0373
1491853221.5985178947,1491853221.6009409428, -0.1876,  0.0023, -0.0020,  0.0055,  0.0078, -0.0373
1491853221.6013190746,1491853221.6037499905, -0.1876,  0.0023, -0.0020,  0.0055,  0.0078, -0.0370
1491853221.6041378975,1491853221.6065599918, -0.1876,  0.0050, -0.0020,  0.0018,  0.0082, -0.0370
1491853221.6069378853,1491853221.6093571186, -0.1895,  0.0050, -0.0020,  0.0018,  0.0082, -0.0370
1491853221.6097340584,1491853221.6121640205, -0.1895,  0.0050, -0.0020,  0.0018,  0.0082, -0.0370
1491853221.6125419140,1491853221.6149768829, -0.1895,  0.0050, -0.0020,  0.0032,  0.0100, -0.0367
1491853221.6153559685,1491853221.6177740097, -0.1895,  0.0050, -0.0020,  0.0032,  0.0100, -0.0367
1491853221.6181519032,1491853221.6205749512, -0.1895,  0.0050, -0.0020,  0.0032,  0.0100, -0.0367
1491853221.6209499836,1491853221.6233699322, -0.1895,  0.0050, -0.0020,  0.0032,  0.0100, -0.0367
1491853221.6237480640,1491853221.6260790825, -0.1895,  0.0050, -0.0068,  0.0049,  0.0115, -0.0356
1491853221.6264500618,1491853221.6287469864, -0.1896,  0.0022, -0.0068,  0.0049,  0.0115, -0.0356
1491853221.6291160583,1491853221.6314129829, -0.1896,  0.0022, -0.0068,  0.0049,  0.0115, -0.0356
1491853221.6317811012,1491853221.6341369152, -0.1896,  0.0022, -0.0068,  0.0049,  0.0115, -0.0347
1491853221.6345078945,1491853221.6368050575, -0.1896,  0.0022, -0.0068,  0.0073,  0.0118, -0.0347
1491853221.6371738911,1491853221.6394739151, -0.1896,  0.0022, -0.0068,  0.0073,  0.0118, -0.0347
1491853221.6398460865,1491853221.6421449184, -0.1896,  0.0022, -0.0068,  0.0073,  0.0118, -0.0347
1491853221.6425139904,1491853221.6448700428, -0.1896,  0.0022, -0.0068,  0.0073,  0.0129, -0.0330
1491853221.6452400684,1491853221.6475410461, -0.1889, -0.0033, -0.0062,  0.0086,  0.0129, -0.0330
1491853221.6479110718,1491853221.6502060890, -0.1889, -0.0033, -0.0062,  0.0086,  0.0129, -0.0330
1491853221.6505761147,1491853221.6528689861, -0.1889, -0.0033, -0.0062,  0.0086,  0.0129, -0.0330
1491853221.6532390118,1491853221.6556880474, -0.1889, -0.0033, -0.0062,  0.0089,  0.0125, -0.0325
1491853221.6560659409,1491853221.6584899426, -0.1889, -0.0033, -0.0062,  0.0089,  0.0125, -0.0325
1491853221.6588680744,1491853221.6613769531, -0.1889, -0.0033, -0.0062,  0.0089,  0.0125, -0.0325
1491853221.6617560387,1491853221.6641840935, -0.1889, -0.0033, -0.0062,  0.0089,  0.0125, -0.0325
1491853221.6645619869,1491853221.6669828892, -0.1875, -0.0021, -0.0091,  0.0087,  0.0119, -0.0308
1491853221.6673610210,1491853221.6697890759, -0.1875, -0.0021, -0.0091,  0.0087,  0.0119, -0.0308
1491853221.6701660156,1491853221.6725919247, -0.1875, -0.0021, -0.0091,  0.0087,  0.0119, -0.0308
1491853221.6729691029,1491853221.6753239632, -0.1875, -0.0021, -0.0091,  0.0087,  0.0119, -0.0295
1491853221.6756970882,1491853221.6779930592, -0.1875, -0.0021, -0.0091,  0.0076,  0.0119, -0.0295
1491853221.6783630848,1491853221.6806530952, -0.1875, -0.0021, -0.0091,  0.0076,  0.0119, -0.0295
1491853221.6810228825,1491853221.6833250523, -0.1875, -0.0021, -0.0091,  0.0076,  0.0119, -0.0295
1491853221.6836950779,1491853221.6861228943, -0.1953, -0.0028, -0.0082,  0.0076,  0.0118, -0.0296
1491853221.6865010262,1491853221.6889209747, -0.1891, -0.0028, -0.0082,  0.0065,  0.0118, -0.0296
1491853221.6894199848,1491853221.6918420792, -0.1891, -0.0028, -0.0082,  0.0065,  0.0118, -0.0296
1491853221.6922199726,1491853221.6946549416, -0.1891, -0.0028, -0.0082,  0.0065,  0.0118, -0.0296
1491853221.6950249672,1491853221.6973299980, -0.1891, -0.0028, -0.0082,  0.0060,  0.0129, -0.0281
1491853221.6977000237,1491853221.6999950409, -0.1891, -0.0028, -0.0082,  0.0060,  0.0129, -0.0281
1491853221.7003660202,1491853221.7026650906, -0.1891, -0.0028, -0.0082,  0.0060,  0.0129, -0.0281
1491853221.7030351162,1491853221.7054250240, -0.1891, -0.0028, -0.0032,  0.0060,  0.0129, -0.0281
1491853221.7057950497,1491853221.7080988884, -0.1911, -0.0060, -0.0032,  0.0051,  0.0138, -0.0254
1491853221.7084679604,1491853221.7107729912, -0.1911, -0.0060, -0.0032,  0.0051,  0.0138, -0.0254
1491853221.7111420631,1491853221.7134430408, -0.1911, -0.0060, -0.0032,  0.0051,  0.0138, -0.0254
1491853221.7138140202,1491853221.7163860798, -0.1911, -0.0060, -0.0032,  0.0051,  0.0138, -0.0176
1491853221.7167639732,1491853221.7191889286, -0.1911, -0.0060, -0.0032,  0.0032,  0.0171, -0.0231
1491853221.7195649147,1491853221.7219901085, -0.1911, -0.0060, -0.0032,  0.0032,  0.0171, -0.0231
1491853221.7223670483,1491853221.7247569561, -0.1911, -0.0060, -0.0032,  0.0032,  0.0171, -0.0231
1491853221.7251288891,1491853221.7274289131, -0.1912, -0.0064, -0.0021,  0.0032,  0.0203, -0.0199
1491853221.7277989388,1491853221.7300970554, -0.1912, -0.0064, -0.0021,  0.0018,  0.0203, -0.0199
1491853221.7304670811,1491853221.7327690125, -0.1912, -0.0064, -0.0021,  0.0018,  0.0203, -0.0199
1491853221.7331380844,1491853221.7355248928, -0.1912, -0.0064, -0.0021,  0.0018,  0.0203, -0.0199
1491853221.7359020710,1491853221.7383260727, -0.1912, -0.0064, -0.0021,  0.0000,  0.0238, -0.0167
1491853221.7387039661,1491853221.7411301136, -0.1912, -0.0064, -0.0021,  0.0000,  0.0238, -0.0167
1491853221.7415070534,1491853221.7439329624, -0.1912, -0.0064, -0.0021,  0.0000,  0.0238, -0.0167
1491853221.7443079948,1491853221.7467329502, -0.1894, -0.0077, -0.0065,  0.0000,  0.0238, -0.0167
1491853221.7471089363,1491853221.7495300770, -0.1894, -0.0077, -0.0065, -0.0012,  0.0272, -0.0130
1491853221.7499089241,1491853221.7523360252, -0.1894, -0.0077, -0.0065, -0.0012,  0.0272, -0.0130
1491853221.7527129650,1491853221.7551560402, -0.1894, -0.0077, -0.0065, -0.0012,  0.0272, -0.0130
1491853221.7555339336,1491853221.7579610348, -0.1894, -0.0077, -0.0065, -0.0012,  0.0272, -0.0062
1491853221.7583420277,1491853221.7607700825, -0.1894, -0.0077, -0.0065, -0.0026,  0.0311, -0.0062
1491853221.7611470222,1491853221.7635710239, -0.1894, -0.0077, -0.0065, -0.0026,  0.0311, -0.0062
1491853221.7639489174,1491853221.7663850784, -0.1908, -0.0223, -0.0046, -0.0026,  0.0311, -0.0062
1491853221.7667620182,1491853221.7691850662, -0.1908, -0.0223, -0.0046, -0.0036,  0.0358,  0.0025
1491853221.7695639133,1491853221.7719929218, -0.1908, -0.0223, -0.0046, -0.0036,  0.0358,  0.0025
1491853221.7723689079,1491853221.7747590542, -0.1908, -0.0223, -0.0046, -0.0036,  0.0358,  0.0025
1491853221.7751278877,1491853221.7774279118, -0.1908, -0.0223, -0.0046, -0.0036,  0.0358,  0.0025
1491853221.7777979374,1491853221.7800929546, -0.1908, -0.0223, -0.0046, -0.0079,  0.0383,  0.0140
1491853221.7804639339,1491853221.7827579975, -0.1908, -0.0223, -0.0046, -0.0079,  0.0383,  0.0140
1491853221.7831270695,1491853221.7855200768, -0.1920, -0.0200, -0.0097, -0.0079,  0.0383,  0.0140
1491853221.7858960629,1491853221.7883279324, -0.1920, -0.0200, -0.0097, -0.0079,  0.0383,  0.0296
1491853221.7887060642,1491853221.7911319733, -0.1920, -0.0200, -0.0097, -0.0117,  0.0418,  0.0256
1491853221.7915110588,1491853221.7939379215, -0.1920, -0.0200, -0.0097, -0.0117,  0.0418,  0.0256
1491853221.7943139076,1491853221.7967429161, -0.1920, -0.0200, -0.0097, -0.0117,  0.0418,  0.0256
1491853221.7971189022,1491853221.7995429039, -0.1920, -0.0200, -0.0097, -0.0195,  0.0449,  0.0378
1491853221.7999200821,1491853221.8023478985, -0.1920, -0.0200, -0.0097, -0.0172,  0.0449,  0.0378
1491853221.8027269840,1491853221.8051660061, -0.1980, -0.0192, -0.0012, -0.0172,  0.0449,  0.0378
1491853221.8056519032,1491853221.8080749512, -0.1980, -0.0192, -0.0012, -0.0172,  0.0449,  0.0378
1491853221.8084518909,1491853221.8108820915, -0.1980, -0.0192, -0.0012, -0.0163,  0.0524,  0.0503
1491853221.8112599850,1491853221.8136899471, -0.1980, -0.0192, -0.0012, -0.0163,  0.0524,  0.0503
1491853221.8140759468,1491853221.8165030479, -0.1980, -0.0192, -0.0012, -0.0163,  0.0524,  0.0503
1491853221.8168799877,1491853221.8193058968, -0.1980, -0.0192, -0.0012, -0.0163,  0.0524,  0.0659
1491853221.8196818829,1491853221.8221049309, -0.1980, -0.0192, -0.0012, -0.0176,  0.0583,  0.0698
1491853221.8224840164,1491853221.8248839378, -0.2058, -0.0193,  0.0061, -0.0176,  0.0583,  0.0698
1491853221.8252530098,1491853221.8275539875, -0.2054, -0.0193,  0.0061, -0.0176,  0.0583,  0.0698
1491853221.8279240131,1491853221.8302280903, -0.2054, -0.0193,  0.0061, -0.0176,  0.0652,  0.0906
1491853221.8305981159,1491853221.8329000473, -0.2054, -0.0193,  0.0061, -0.0197,  0.0652,  0.0906
1491853221.8332691193,1491853221.8357379436, -0.2054, -0.0193,  0.0061, -0.0197,  0.0652,  0.0906
1491853221.8361160755,1491853221.8385429382, -0.2054, -0.0193,  0.0061, -0.0197,  0.0652,  0.0906
1491853221.8389210701,1491853221.8413560390, -0.2054, -0.0193,  0.0061, -0.0148,  0.0738,  0.1092
1491853221.8417339325,1491853221.8441729546, -0.2054, -0.0037, -0.0062, -0.0148,  0.0738,  0.1092
1491853221.8445510864,1491853221.8469760418, -0.2233, -0.0016, -0.0062, -0.0148,  0.0738,  0.1092
1491853221.8473529816,1491853221.8497779369, -0.2233, -0.0016, -0.0062, -0.0148,  0.0738,  0.1092
1491853221.8501560688,1491853221.8525819778, -0.2233, -0.0016, -0.0062, -0.0066,  0.0838,  0.1233
1491853221.8529610634,1491853221.8553891182, -0.2233, -0.0016, -0.0062, -0.0066,  0.0838,  0.1233
1491853221.8557679653,1491853221.8581960201, -0.2233, -0.0016, -0.0062, -0.0066,  0.0838,  0.1233
1491853221.8585739136,1491853221.8609969616, -0.2233, -0.0016, -0.0062, -0.0066,  0.0923,  0.1293
1491853221.8613739014,1491853221.8638029099, -0.2233, -0.0016, -0.0460,  0.0037,  0.0923,  0.1293
1491853221.8641901016,1491853221.8666200638, -0.2595, -0.0580, -0.0460,  0.0037,  0.0923,  0.1293
1491853221.8669979572,1491853221.8694250584, -0.2595, -0.0580, -0.0460,  0.0037,  0.0923,  0.1293
1491853221.8698000908,1491853221.8722250462, -0.2595, -0.0580, -0.0460, -0.0240,  0.0872,  0.1395
1491853221.8726010323,1491853221.8750250340, -0.2595, -0.0580, -0.0460, -0.0240,  0.0872,  0.1395
1491853221.8753960133,1491853221.8776929379, -0.2595, -0.0580, -0.0460, -0.0240,  0.0872,  0.1395
1491853221.8780610561,1491853221.8803610802, -0.2595, -0.0580, -0.0460, -0.0240,  0.0872,  0.1395
1491853221.8807289600,1491853221.8830258846, -0.2595, -0.0580, -0.0460, -0.0457,  0.0713,  0.1778
1491853221.8833930492,1491853221.8857851028, -0.3938, -0.1068, -0.0090, -0.0457,  0.0713,  0.1778
1491853221.8861629963,1491853221.8885889053, -0.3938, -0.1068, -0.0090, -0.0457,  0.0713,  0.1778
1491853221.8889689445,1491853221.8913969994, -0.3938, -0.1068, -0.0090, -0.0457,  0.0713,  0.2216
1491853221.8917748928,1491853221.8941988945, -0.3938, -0.1068, -0.0090, -0.0373,  0.1009,  0.2216
1491853221.8945760727,1491853221.8970038891, -0.3938, -0.1068, -0.0090, -0.0373,  0.1009,  0.2216
1491853221.8973829746,1491853221.8998100758, -0.3938, -0.1068, -0.0090, -0.0373,  0.1009,  0.2216
1491853221.9001879692,1491853221.9026091099, -0.3938, -0.1068, -0.0090, -0.0680,  0.1055,  0.2504
1491853221.9029870033,1491853221.9054150581, -0.3255, -0.0565, -0.0171, -0.0680,  0.1055,  0.2504
1491853221.9057919979,1491853221.9082179070, -0.3255, -0.0565, -0.0171, -0.0680,  0.1055,  0.2504
1491853221.9085969925,1491853221.9110219479, -0.3255, -0.0565, -0.0171, -0.0680,  0.1055,  0.2504
1491853221.9113979340,1491853221.9138219357, -0.3255, -0.0565, -0.0171, -0.0893,  0.0989,  0.2736
1491853221.9142069817,1491853221.9166340828, -0.3255, -0.0565, -0.0171, -0.0893,  0.0989,  0.2736
1491853221.9170100689,1491853221.9194350243, -0.3255, -0.0565, -0.0171, -0.0893,  0.0989,  0.2736
1491853221.9198100567,1491853221.9222331047, -0.3255, -0.0565, -0.0171, -0.0893,  0.0989,  0.2854
1491853221.9227199554,1491853221.9251089096, -0.3040,  0.0008,  0.0175, -0.0833,  0.1057,  0.2854
1491853221.9254779816,1491853221.9277749062, -0.3040,  0.0008,  0.0175, -0.0833,  0.1057,  0.2854
1491853221.9281449318,1491853221.9304449558, -0.3040,  0.0008,  0.0175, -0.0833,  0.1057,  0.2854
1491853221.9308140278,1491853221.9331159592, -0.3040,  0.0008,  0.0175, -0.0755,  0.1313,  0.2670
1491853221.9334840775,1491853221.9359240532, -0.3040,  0.0008,  0.0175, -0.0724,  0.1313,  0.2670
1491853221.9363000393,1491853221.9387249947, -0.3040,  0.0008,  0.0175, -0.0724,  0.1313,  0.2670
1491853221.9391028881,1491853221.9415290356, -0.3040,  0.0008,  0.0175, -0.0724,  0.1313,  0.2670
1491853221.9419059753,1491853221.9443430901, -0.2085, -0.0676, -0.0206, -0.0883,  0.1668,  0.2439
1491853221.9447190762,1491853221.9471440315, -0.2085, -0.0676, -0.0206, -0.0883,  0.1668,  0.2439
1491853221.9475209713,1491853221.9499471188, -0.2085, -0.0676, -0.0206, -0.0883,  0.1668,  0.2439
1491853221.9503250122,1491853221.9527499676, -0.2085, -0.0676, -0.0206, -0.0883,  0.1668,  0.2439
1491853221.9531259537,1491853221.9555649757, -0.2085, -0.0676, -0.0206, -0.1274,  0.1350,  0.2212
1491853221.9559400082,1491853221.9583640099, -0.2085, -0.0676, -0.0206, -0.1274,  0.1350,  0.2212
1491853221.9587409496,1491853221.9611699581, -0.2085, -0.0676, -0.0206, -0.1274,  0.1350,  0.2212
1491853221.9615459442,1491853221.9639680386, -0.1855, -0.0418,  0.0122, -0.1274,  0.0959,  0.1860
1491853221.9643909931,1491853221.9668159485, -0.1855, -0.0418,  0.0122, -0.1232,  0.0959,  0.1860
1491853221.9671909809,1491853221.9696180820, -0.1855, -0.0418,  0.0122, -0.1232,  0.0959,  0.1860
1491853221.9699950218,1491853221.9724218845, -0.1855, -0.0418,  0.0122, -0.1232,  0.0959,  0.1860
1491853221.9727969170,1491853221.9752230644, -0.1855, -0.0418,  0.0122, -0.1174,  0.0731,  0.1552
1491853221.9755940437,1491853221.9778950214, -0.1855, -0.0418,  0.0122, -0.1174,  0.0731,  0.1552
1491853221.9782640934,1491853221.9805679321, -0.1855, -0.0418,  0.0122, -0.1174,  0.0731,  0.1552
1491853221.9809360504,1491853221.9832379818, -0.1699, -0.0773,  0.0300, -0.1174,  0.0731,  0.1552
1491853221.9836089611,1491853221.9859070778, -0.1668, -0.0773,  0.0300, -0.1114,  0.0623,  0.1326
1491853221.9862771034,1491853221.9885790348, -0.1668, -0.0773,  0.0300, -0.1114,  0.0623,  0.1326
1491853221.9889469147,1491853221.9912409782, -0.1668, -0.0773,  0.0300, -0.1114,  0.0623,  0.1326
1491853221.9916090965,1491853221.9939060211, -0.1668, -0.0773,  0.0300, -0.1114,  0.0623,  0.1326
1491853221.9942851067,1491853221.9966731071, -0.1668, -0.0773,  0.0300, -0.1013,  0.0557,  0.1119
1491853221.9970479012,1491853221.9994349480, -0.1668, -0.0773,  0.0300, -0.1013,  0.0557,  0.1119
1491853221.9998099804,1491853222.0021998882, -0.1668, -0.0773,  0.0300, -0.1013,  0.0557,  0.1119
1491853222.0025761127,1491853222.0049850941, -0.1265, -0.0803,  0.0276, -0.1013,  0.0401,  0.0837
1491853222.0053620338,1491853222.0077888966, -0.1265, -0.0803,  0.0276, -0.0866,  0.0438,  0.0837
1491853222.0081629753,1491853222.0105879307, -0.1265, -0.0803,  0.0276, -0.0866,  0.0438,  0.0837
1491853222.0109639168,1491853222.0133900642, -0.1265, -0.0803,  0.0276, -0.0866,  0.0438,  0.0837
1491853222.0137650967,1491853222.0161969662, -0.1265, -0.0803,  0.0276, -0.0717,  0.0284,  0.0512
1491853222.0165729523,1491853222.0189990997, -0.1265, -0.0803,  0.0276, -0.0717,  0.0284,  0.0512
1491853222.0193760395,1491853222.0218079090, -0.1265, -0.0803,  0.0276, -0.0717,  0.0284,  0.0512
1491853222.0221829414,1491853222.0246279240, -0.1112, -0.0925,  0.0350, -0.0717,  0.0284,  0.0512
1491853222.0249969959,1491853222.0272951126, -0.1112, -0.0925,  0.0350, -0.0558,  0.0141,  0.0182
1491853222.0276629925,1491853222.0299639702, -0.1112, -0.0925,  0.0350, -0.0558,  0.0141,  0.0182
1491853222.0303330421,1491853222.0326321125, -0.1112, -0.0925,  0.0350, -0.0558,  0.0141,  0.0182
1491853222.0330018997,1491853222.0353810787, -0.1112, -0.0925,  0.0350, -0.0558,  0.0141, -0.0130
1491853222.0358619690,1491853222.0382869244, -0.1112, -0.0925,  0.0350, -0.0387, -0.0005, -0.0133
1491853222.0386641026,1491853222.0410931110, -0.1112, -0.0925,  0.0350, -0.0387, -0.0005, -0.0133
1491853222.0414690971,1491853222.0438950062, -0.1013, -0.0955,  0.0345, -0.0387, -0.0005, -0.0133
1491853222.0442810059,1491853222.0467140675, -0.1013, -0.0955,  0.0345, -0.0214, -0.0158, -0.0433
1491853222.0470890999,1491853222.0495150089, -0.1013, -0.0955,  0.0345, -0.0214, -0.0158, -0.0433
1491853222.0498919487,1491853222.0523219109, -0.1013, -0.0955,  0.0345, -0.0214, -0.0158, -0.0433
1491853222.0527000427,1491853222.0551369190, -0.1013, -0.0955,  0.0345, -0.0214, -0.0158, -0.0433
1491853222.0555150509,1491853222.0579390526, -0.1013, -0.0955,  0.0345, -0.0058, -0.0322, -0.0747
1491853222.0583159924,1491853222.0607409477, -0.1013, -0.0955,  0.0345, -0.0058, -0.0322, -0.0747
1491853222.0611200333,1491853222.0635449886, -0.0955, -0.0990,  0.0336, -0.0058, -0.0322, -0.0747
1491853222.0639228821,1491853222.0663590431, -0.0955, -0.0990,  0.0336, -0.0058, -0.0322, -0.1068
1491853222.0667350292,1491853222.0691659451, -0.0955, -0.0990,  0.0336,  0.0110, -0.0486, -0.1068
1491853222.0695409775,1491853222.0719659328, -0.0955, -0.0990,  0.0336,  0.0110, -0.0486, -0.1068
1491853222.0723440647,1491853222.0747520924, -0.0955, -0.0990,  0.0336,  0.0110, -0.0486, -0.1068
1491853222.0751209259,1491853222.0774199963, -0.0955, -0.0990,  0.0336,  0.0245, -0.0641, -0.1380
1491853222.0777890682,1491853222.0800869465, -0.0955, -0.0990,  0.0336,  0.0245, -0.0641, -0.1380
1491853222.0804550648,1491853222.0827579498, -0.1041, -0.1111,  0.0334,  0.0245, -0.0641, -0.1380
1491853222.0831279755,1491853222.0855259895, -0.1041, -0.1111,  0.0334,  0.0245, -0.0641, -0.1380
1491853222.0859038830,1491853222.0883190632, -0.1041, -0.1111,  0.0334,  0.0354, -0.0769, -0.1688
1491853222.0886950493,1491853222.0910990238, -0.1041, -0.1111,  0.0334,  0.0354, -0.0769, -0.1688
1491853222.0914719105,1491853222.0938789845, -0.1041, -0.1111,  0.0334,  0.0354, -0.0769, -0.1688
1491853222.0942571163,1491853222.0966439247, -0.1041, -0.1111,  0.0334,  0.0354, -0.0769, -0.1688
1491853222.0970189571,1491853222.0994079113, -0.1041, -0.1111,  0.0334,  0.0424, -0.0888, -0.1991
1491853222.0997819901,1491853222.1021718979, -0.1119, -0.1236,  0.0314,  0.0424, -0.0888, -0.1991
1491853222.1025459766,1491853222.1049439907, -0.1127, -0.1236,  0.0314,  0.0424, -0.0888, -0.1991
1491853222.1053230762,1491853222.1077520847, -0.1127, -0.1236,  0.0314,  0.0424, -0.0966, -0.2294
1491853222.1081299782,1491853222.1105549335, -0.1127, -0.1236,  0.0314,  0.0469, -0.1005, -0.2294
1491853222.1109330654,1491853222.1133649349, -0.1127, -0.1236,  0.0314,  0.0469, -0.1005, -0.2294
1491853222.1137430668,1491853222.1161870956, -0.1127, -0.1236,  0.0314,  0.0469, -0.1005, -0.2294
1491853222.1165649891,1491853222.1189889908, -0.1127, -0.1236,  0.0314,  0.0499, -0.1126, -0.2583
1491853222.1193668842,1491853222.1217870712, -0.1127, -0.1303,  0.0305,  0.0499, -0.1126, -0.2583
1491853222.1221640110,1491853222.1245899200, -0.1226, -0.1303,  0.0305,  0.0499, -0.1126, -0.2583
1491853222.1249608994,1491853222.1272590160, -0.1226, -0.1303,  0.0305,  0.0499, -0.1126, -0.2583
1491853222.1276309490,1491853222.1299340725, -0.1226, -0.1303,  0.0305,  0.0522, -0.1255, -0.2867
1491853222.1303040981,1491853222.1326010227, -0.1226, -0.1303,  0.0305,  0.0522, -0.1255, -0.2867
1491853222.1329689026,1491853222.1353909969, -0.1226, -0.1303,  0.0305,  0.0522, -0.1255, -0.2867
1491853222.1357619762,1491853222.1380569935, -0.1226, -0.1303,  0.0305,  0.0522, -0.1255, -0.2867
1491853222.1384260654,1491853222.1407270432, -0.1226, -0.1303,  0.0305,  0.0558, -0.1369, -0.3141
1491853222.1410961151,1491853222.1433908939, -0.1416, -0.1362,  0.0260,  0.0558, -0.1369, -0.3141
1491853222.1437599659,1491853222.1461899281, -0.1416, -0.1362,  0.0260,  0.0558, -0.1369, -0.3141
1491853222.1465659142,1491853222.1489870548, -0.1416, -0.1362,  0.0260,  0.0558, -0.1447, -0.3384
1491853222.1493620872,1491853222.1517829895, -0.1416, -0.1362,  0.0260,  0.0601, -0.1461, -0.3384
1491853222.1522719860,1491853222.1547069550, -0.1416, -0.1362,  0.0260,  0.0601, -0.1461, -0.3384
1491853222.1550819874,1491853222.1575050354, -0.1416, -0.1362,  0.0260,  0.0601, -0.1461, -0.3384
1491853222.1578819752,1491853222.1603109837, -0.1416, -0.1362,  0.0260,  0.0648, -0.1542, -0.3611
1491853222.1606860161,1491853222.1631140709, -0.1653, -0.1365,  0.0207,  0.0648, -0.1542, -0.3611
1491853222.1634910107,1491853222.1659259796, -0.1653, -0.1365,  0.0207,  0.0648, -0.1542, -0.3611
1491853222.1663019657,1491853222.1687259674, -0.1653, -0.1365,  0.0207,  0.0648, -0.1542, -0.3611
1491853222.1691009998,1491853222.1715190411, -0.1653, -0.1365,  0.0207,  0.0695, -0.1601, -0.3814
1491853222.1718950272,1491853222.1743268967, -0.1653, -0.1365,  0.0207,  0.0695, -0.1601, -0.3814
1491853222.1747040749,1491853222.1771318913, -0.1653, -0.1365,  0.0207,  0.0695, -0.1601, -0.3814
1491853222.1775081158,1491853222.1799340248, -0.1653, -0.1365,  0.0207,  0.0695, -0.1601, -0.4026
1491853222.1803100109,1491853222.1827321053, -0.1960, -0.1313,  0.0127,  0.0739, -0.1636, -0.4026
1491853222.1831099987,1491853222.1854701042, -0.1960, -0.1313,  0.0127,  0.0739, -0.1636, -0.4026
1491853222.1858379841,1491853222.1881411076, -0.1960, -0.1313,  0.0127,  0.0739, -0.1636, -0.4026
1491853222.1885099411,1491853222.1908090115, -0.1960, -0.1313,  0.0127,  0.0787, -0.1648, -0.4231
1491853222.1911768913,1491853222.1934769154, -0.1960, -0.1313,  0.0127,  0.0787, -0.1648, -0.4231
1491853222.1938450336,1491853222.1962959766, -0.1960, -0.1313,  0.0127,  0.0787, -0.1648, -0.4231
1491853222.1966750622,1491853222.1990981102, -0.1960, -0.1313,  0.0127,  0.0787, -0.1648, -0.4231
1491853222.1994750500,1491853222.2019009590, -0.2400, -0.1166,  0.0006,  0.0800, -0.1655, -0.4433
1491853222.2022778988,1491853222.2047150135, -0.2400, -0.1166,  0.0006,  0.0800, -0.1655, -0.4433
1491853222.2050940990,1491853222.2075660229, -0.2400, -0.1166,  0.0006,  0.0800, -0.1655, -0.4433
1491853222.2079439163,1491853222.2103600502, -0.2400, -0.1166,  0.0006,  0.0800, -0.1655, -0.4608
1491853222.2107379436,1491853222.2131509781, -0.2400, -0.1166,  0.0006,  0.0787, -0.1643, -0.4608
1491853222.2135260105,1491853222.2160348892, -0.2400, -0.1166,  0.0006,  0.0787, -0.1643, -0.4608
1491853222.2164230347,1491853222.2189390659, -0.2400, -0.1166,  0.0006,  0.0787, -0.1643, -0.4608
1491853222.2193169594,1491853222.2217290401, -0.2807, -0.1021, -0.0053,  0.0775, -0.1626, -0.4742
1491853222.2221069336,1491853222.2245240211, -0.2807, -0.1021, -0.0053,  0.0775, -0.1626, -0.4742
1491853222.2249019146,1491853222.2274100780, -0.2807, -0.1021, -0.0053,  0.0775, -0.1626, -0.4742
1491853222.2277889252,1491853222.2302019596, -0.2807, -0.1021, -0.0053,  0.0775, -0.1626, -0.4742
1491853222.2305779457,1491853222.2329950333, -0.2807, -0.1021, -0.0053,  0.0748, -0.1604, -0.4808
1491853222.2333729267,1491853222.2357199192, -0.2807, -0.1021, -0.0053,  0.0748, -0.1604, -0.4808
1491853222.2360908985,1491853222.2385120392, -0.2807, -0.1021, -0.0053,  0.0748, -0.1604, -0.4808
1491853222.2388830185,1491853222.2411849499, -0.3157, -0.0648, -0.0262,  0.0748, -0.1604, -0.4787
1491853222.2415530682,1491853222.2438509464, -0.3157, -0.0648, -0.0262,  0.0709, -0.1562, -0.4787
1491853222.2442190647,1491853222.2465109825, -0.3157, -0.0648, -0.0262,  0.0709, -0.1562, -0.4787
1491853222.2468810081,1491853222.2492721081, -0.3157, -0.0648, -0.0262,  0.0709, -0.1562, -0.4787
1491853222.2496430874,1491853222.2519440651, -0.3157, -0.0648, -0.0262,  0.0709, -0.1505, -0.4722
1491853222.2523119450,1491853222.2546839714, -0.3157, -0.0648, -0.0262,  0.0609, -0.1505, -0.4722
1491853222.2550570965,1491853222.2574429512, -0.3157, -0.0648, -0.0262,  0.0609, -0.1505, -0.4722
1491853222.2578179836,1491853222.2602319717, -0.3157, -0.0648, -0.0446,  0.0609, -0.1505, -0.4722
1491853222.2606089115,1491853222.2630200386, -0.3314, -0.0239, -0.0446,  0.0477, -0.1435, -0.4580
1491853222.2633950710,1491853222.2657949924, -0.3314, -0.0239, -0.0446,  0.0477, -0.1435, -0.4580
1491853222.2661681175,1491853222.2686018944, -0.3314, -0.0239, -0.0446,  0.0477, -0.1435, -0.4580
1491853222.2690980434,1491853222.2715270519, -0.3314, -0.0239, -0.0446,  0.0477, -0.1435, -0.4580
1491853222.2719039917,1491853222.2743399143, -0.3314, -0.0239, -0.0446,  0.0341, -0.1349, -0.4369
1491853222.2747139931,1491853222.2771399021, -0.3314, -0.0239, -0.0446,  0.0341, -0.1349, -0.4369
1491853222.2775158882,1491853222.2799398899, -0.3314, -0.0239, -0.0451,  0.0341, -0.1349, -0.4369
1491853222.2803180218,1491853222.2827410698, -0.3257,  0.0115, -0.0451,  0.0341, -0.1193, -0.4049
1491853222.2831161022,1491853222.2855501175, -0.3257,  0.0115, -0.0451,  0.0160, -0.1224, -0.4049
1491853222.2859280109,1491853222.2883470058, -0.3257,  0.0115, -0.0451,  0.0160, -0.1224, -0.4049
1491853222.2887239456,1491853222.2911479473, -0.3257,  0.0115, -0.0451,  0.0160, -0.1224, -0.4049
1491853222.2915248871,1491853222.2939519882, -0.3257,  0.0115, -0.0451, -0.0009, -0.1068, -0.3632
1491853222.2943909168,1491853222.2966849804, -0.3257,  0.0115, -0.0451, -0.0009, -0.1068, -0.3632
1491853222.2970569134,1491853222.2993609905, -0.3257,  0.0115, -0.0373, -0.0009, -0.1068, -0.3632
1491853222.2997300625,1491853222.3020260334, -0.2972,  0.0769, -0.0342, -0.0009, -0.1068, -0.3632
1491853222.3023939133,1491853222.3047349453, -0.2972,  0.0769, -0.0342, -0.0141, -0.0910, -0.3126
1491853222.3051118851,1491853222.3075389862, -0.2972,  0.0769, -0.0342, -0.0141, -0.0910, -0.3126
1491853222.3079149723,1491853222.3103361130, -0.2972,  0.0769, -0.0342, -0.0141, -0.0910, -0.3126
1491853222.3107130527,1491853222.3131349087, -0.2972,  0.0769, -0.0342, -0.0141, -0.0910, -0.2501
1491853222.3135099411,1491853222.3159430027, -0.2972,  0.0769, -0.0342, -0.0236, -0.0780, -0.2527
1491853222.3163199425,1491853222.3187420368, -0.2972,  0.0769, -0.0342, -0.0236, -0.0780, -0.2527
1491853222.3191170692,1491853222.3215410709, -0.2650,  0.1694, -0.0371, -0.0236, -0.0780, -0.2527
1491853222.3219149113,1491853222.3243470192, -0.2650,  0.1694, -0.0371, -0.0236, -0.0690, -0.1913
1491853222.3247230053,1491853222.3271460533, -0.2650,  0.1694, -0.0371, -0.0267, -0.0690, -0.1913
1491853222.3275229931,1491853222.3299489021, -0.2650,  0.1694, -0.0371, -0.0267, -0.0690, -0.1913
1491853222.3303260803,1491853222.3327488899, -0.2650,  0.1694, -0.0371, -0.0267, -0.0690, -0.1913
1491853222.3331251144,1491853222.3355669975, -0.2650,  0.1694, -0.0371, -0.0233, -0.0616, -0.1309
1491853222.3359429836,1491853222.3383719921, -0.2650,  0.1694, -0.0371, -0.0233, -0.0616, -0.1309
1491853222.3387489319,1491853222.3411779404, -0.2473,  0.2541, -0.0612, -0.0233, -0.0616, -0.1309
1491853222.3415520191,1491853222.3439800739, -0.2473,  0.2541, -0.0612, -0.0233, -0.0616, -0.0762
1491853222.3444139957,1491853222.3467109203, -0.2473,  0.2541, -0.0612, -0.0228, -0.0502, -0.0716
1491853222.3470799923,1491853222.3493759632, -0.2473,  0.2541, -0.0612, -0.0228, -0.0502, -0.0716
1491853222.3497440815,1491853222.3520460129, -0.2473,  0.2541, -0.0612, -0.0228, -0.0502, -0.0716
1491853222.3524129391,1491853222.3547189236, -0.2473,  0.2541, -0.0612, -0.0228, -0.0345, -0.0186
1491853222.3550870419,1491853222.3573870659, -0.2473,  0.2541, -0.0612, -0.0378, -0.0339, -0.0186
1491853222.3577549458,1491853222.3600559235, -0.2540,  0.2664, -0.0801, -0.0378, -0.0339, -0.0186
1491853222.3604249954,1491853222.3627181053, -0.2540,  0.2664, -0.0801, -0.0378, -0.0339, -0.0186
1491853222.3630869389,1491853222.3655090332, -0.2540,  0.2664, -0.0801, -0.0613, -0.0139,  0.0403
1491853222.3658850193,1491853222.3683080673, -0.2540,  0.2664, -0.0801, -0.0556, -0.0139,  0.0403
1491853222.3686819077,1491853222.3711071014, -0.2540,  0.2664, -0.0801, -0.0556, -0.0139,  0.0403
1491853222.3714849949,1491853222.3739109039, -0.2540,  0.2664, -0.0801, -0.0556, -0.0139,  0.0403
1491853222.3742949963,1491853222.3767189980, -0.2540,  0.2664, -0.0801, -0.0754,  0.0098,  0.1022
1491853222.3770959377,1491853222.3795239925, -0.2540,  0.3043, -0.0848, -0.0754,  0.0098,  0.1022
1491853222.3798999786,1491853222.3823280334, -0.2634,  0.3043, -0.0848, -0.0754,  0.0098,  0.1022
1491853222.3827080727,1491853222.3851439953, -0.2634,  0.3043, -0.0848, -0.0754,  0.0098,  0.1569
1491853222.3856289387,1491853222.3880560398, -0.2634,  0.3043, -0.0848, -0.0873,  0.0348,  0.1595
1491853222.3884329796,1491853222.3908579350, -0.2634,  0.3043, -0.0848, -0.0873,  0.0348,  0.1595
1491853222.3912351131,1491853222.3936619759, -0.2634,  0.3043, -0.0848, -0.0873,  0.0348,  0.1595
1491853222.3940460682,1491853222.3963439465, -0.2634,  0.3043, -0.0848, -0.0962,  0.0551,  0.2154
1491853222.3967139721,1491853222.3990099430, -0.2634,  0.3199, -0.0842, -0.0962,  0.0551,  0.2154
1491853222.3993790150,1491853222.4016768932, -0.2640,  0.3173, -0.0842, -0.0962,  0.0551,  0.2154
1491853222.4020450115,1491853222.4044079781, -0.2640,  0.3173, -0.0842, -0.0962,  0.0551,  0.2154
1491853222.4047870636,1491853222.4072120190, -0.2640,  0.3173, -0.0842, -0.0897,  0.0773,  0.2613
1491853222.4075889587,1491853222.4100139141, -0.2640,  0.3173, -0.0842, -0.0897,  0.0773,  0.2613
1491853222.4103899002,1491853222.4128170013, -0.2640,  0.3173, -0.0842, -0.0897,  0.0773,  0.2613
1491853222.4131960869,1491853222.4156670570, -0.2640,  0.3173, -0.0842, -0.0897,  0.0773,  0.2613
1491853222.4160420895,1491853222.4184648991, -0.2640,  0.3173,  0.0955, -0.0188,  0.0913,  0.2892
1491853222.4188420773,1491853222.4212570190, -0.1996, -0.1686,  0.0968, -0.0188,  0.0913,  0.2892
1491853222.4216339588,1491853222.4240710735, -0.1996, -0.1686,  0.0968, -0.0188,  0.0913,  0.2892
1491853222.4244470596,1491853222.4268679619, -0.1996, -0.1686,  0.0968, -0.0188,  0.1694,  0.1738
1491853222.4272429943,1491853222.4296679497, -0.1996, -0.1686,  0.0968, -0.0001,  0.1698,  0.1738
1491853222.4300460815,1491853222.4324660301, -0.1996, -0.1686,  0.0968, -0.0001,  0.1698,  0.1738
1491853222.4328420162,1491853222.4352691174, -0.1996, -0.1686,  0.0968, -0.0001,  0.1698,  0.1738
1491853222.4356451035,1491853222.4380691051, -0.1996, -0.1686,  0.0968, -0.0881,  0.0584,  0.1357
1491853222.4384450912,1491853222.4408710003, -0.5280, -0.6894,  0.2040, -0.0881,  0.0584,  0.1357
1491853222.4412479401,1491853222.4436759949, -0.5280, -0.6894,  0.2040, -0.0881,  0.0584,  0.1357
1491853222.4440610409,1491853222.4463620186, -0.5280, -0.6894,  0.2040, -0.0881,  0.0584,  0.1357
1491853222.4467310905,1491853222.4490299225, -0.5280, -0.6894,  0.2040, -0.0242,  0.0756,  0.6099
1491853222.4493980408,1491853222.4516959190, -0.5280, -0.6894,  0.2040, -0.0242,  0.0756,  0.6099
1491853222.4520630836,1491853222.4543910027, -0.5280, -0.6894,  0.2040, -0.0242,  0.0756,  0.6099
1491853222.4547679424,1491853222.4571890831, -0.5280, -0.6894,  0.2040, -0.0242,  0.0756,  0.5786
1491853222.4575650692,1491853222.4599919319, -0.2572,  0.5843, -0.0437, -0.0317,  0.0778,  0.5838
1491853222.4603660107,1491853222.4627869129, -0.2572,  0.5843, -0.0437, -0.0317,  0.0778,  0.5838
1491853222.4631619453,1491853222.4656169415, -0.2572,  0.5843, -0.0437, -0.0317,  0.0778,  0.5838
1491853222.4659929276,1491853222.4684159756, -0.2572,  0.5843, -0.0437,  0.0604,  0.1078,  0.3035
1491853222.4687910080,1491853222.4712150097, -0.2572,  0.5843, -0.0437,  0.0604,  0.1078,  0.3035
1491853222.4715919495,1491853222.4740149975, -0.2572,  0.5843, -0.0437,  0.0604,  0.1078,  0.3035
1491853222.4744400978,1491853222.4768691063, -0.2572,  0.5843, -0.0437,  0.0604,  0.1078,  0.3035
1491853222.4772450924,1491853222.4796628952, -0.2087, -0.1415, -0.0174, -0.0546,  0.0986,  0.2481
1491853222.4800388813,1491853222.4824569225, -0.2087, -0.1415, -0.0174, -0.0546,  0.0986,  0.2481
1491853222.4828319550,1491853222.4852590561, -0.2087, -0.1415, -0.0174, -0.0546,  0.0986,  0.2481
1491853222.4856340885,1491853222.4880518913, -0.2087, -0.1415, -0.0174, -0.0546,  0.0986,  0.2793
1491853222.4884300232,1491853222.4908490181, -0.2087, -0.1415, -0.0174, -0.0748,  0.0636,  0.2797
1491853222.4912230968,1491853222.4936439991, -0.2087, -0.1415, -0.0174, -0.0748,  0.0636,  0.2797
1491853222.4940578938,1491853222.4963760376, -0.2087, -0.1415, -0.0174, -0.0748,  0.0636,  0.2797
1491853222.4967451096,1491853222.4990448952, -0.1567,  0.0818, -0.0243, -0.0826,  0.0333,  0.2889
1491853222.4994149208,1491853222.5017120838, -0.1567,  0.0818, -0.0243, -0.0792,  0.0333,  0.2889
1491853222.5021889210,1491853222.5045340061, -0.1567,  0.0818, -0.0243, -0.0792,  0.0333,  0.2889
1491853222.5049099922,1491853222.5073280334, -0.1567,  0.0818, -0.0243, -0.0792,  0.0333,  0.2889
1491853222.5077030659,1491853222.5101249218, -0.1567,  0.0818, -0.0243, -0.0626,  0.0141,  0.2659
1491853222.5105030537,1491853222.5129280090, -0.1567,  0.0818, -0.0243, -0.0626,  0.0141,  0.2659
1491853222.5133039951,1491853222.5157411098, -0.1567,  0.0818, -0.0243, -0.0626,  0.0141,  0.2659
1491853222.5161159039,1491853222.5185420513, -0.1880,  0.1001, -0.0191, -0.0626,  0.0141,  0.2659
1491853222.5189189911,1491853222.5213410854, -0.1876,  0.1001, -0.0191, -0.0329,  0.0080,  0.2298
1491853222.5217189789,1491853222.5241539478, -0.1876,  0.1001, -0.0191, -0.0329,  0.0080,  0.2298
1491853222.5245320797,1491853222.5269570351, -0.1876,  0.1001, -0.0191, -0.0329,  0.0080,  0.2298
1491853222.5273358822,1491853222.5297629833, -0.1876,  0.1001, -0.0191, -0.0329,  0.0080,  0.1908
1491853222.5301420689,1491853222.5325651169, -0.1876,  0.1001, -0.0191,  0.0181,  0.0130,  0.1908
1491853222.5329420567,1491853222.5353739262, -0.1876,  0.1001, -0.0191,  0.0181,  0.0130,  0.1908
1491853222.5357499123,1491853222.5381700993, -0.1876,  0.0275, -0.0425,  0.0181,  0.0130,  0.1908
1491853222.5385460854,1491853222.5409719944, -0.1791,  0.0275, -0.0425,  0.0362,  0.0026,  0.1677
1491853222.5413489342,1491853222.5437738895, -0.1791,  0.0275, -0.0425,  0.0362,  0.0026,  0.1677
1491853222.5441579819,1491853222.5464589596, -0.1791,  0.0275, -0.0425,  0.0362,  0.0026,  0.1677
1491853222.5468270779,1491853222.5491240025, -0.1791,  0.0275, -0.0425,  0.0362,  0.0026,  0.1677
1491853222.5494940281,1491853222.5517899990, -0.1791,  0.0275, -0.0425,  0.0440, -0.0091,  0.1467
1491853222.5521600246,1491853222.5545299053, -0.1791,  0.0275, -0.0425,  0.0440, -0.0091,  0.1467
1491853222.5549070835,1491853222.5573320389, -0.1791,  0.0275, -0.0067,  0.0440, -0.0091,  0.1467
1491853222.5577070713,1491853222.5601298809, -0.1921,  0.0339, -0.0067,  0.0440, -0.0091,  0.1232
1491853222.5605080128,1491853222.5629351139, -0.1921,  0.0339, -0.0067,  0.0581, -0.0067,  0.1226
1491853222.5633139610,1491853222.5657498837, -0.1921,  0.0339, -0.0067,  0.0581, -0.0067,  0.1226
1491853222.5661270618,1491853222.5685520172, -0.1921,  0.0339, -0.0067,  0.0581, -0.0067,  0.1226
1491853222.5689289570,1491853222.5713551044, -0.1921,  0.0339, -0.0067,  0.0668, -0.0042,  0.1024
1491853222.5717329979,1491853222.5741620064, -0.1921,  0.0339, -0.0067,  0.0668, -0.0042,  0.1024
1491853222.5745410919,1491853222.5769650936, -0.1921,  0.0339, -0.0223,  0.0668, -0.0042,  0.1024
1491853222.5773410797,1491853222.5797650814, -0.1892,  0.0188, -0.0222,  0.0668, -0.0042,  0.1024
1491853222.5801420212,1491853222.5825641155, -0.1892,  0.0188, -0.0222,  0.0662, -0.0079,  0.0819
1491853222.5829420090,1491853222.5853819847, -0.1892,  0.0188, -0.0222,  0.0662, -0.0079,  0.0819
1491853222.5857601166,1491853222.5881879330, -0.1892,  0.0188, -0.0222,  0.0662, -0.0079,  0.0819
1491853222.5885660648,1491853222.5909891129, -0.1892,  0.0188, -0.0222,  0.0662, -0.0079,  0.0663
1491853222.5913670063,1491853222.5937950611, -0.1892,  0.0188, -0.0222,  0.0620, -0.0147,  0.0667
1491853222.5941810608,1491853222.5964829922, -0.1892,  0.0188, -0.0222,  0.0620, -0.0147,  0.0667
1491853222.5968511105,1491853222.5991489887, -0.1945,  0.0184, -0.0097,  0.0620, -0.0147,  0.0667
1491853222.5995190144,1491853222.6018209457, -0.1945,  0.0184, -0.0097,  0.0620, -0.0207,  0.0547
1491853222.6021909714,1491853222.6045019627, -0.1945,  0.0184, -0.0097,  0.0596, -0.0207,  0.0547
1491853222.6048710346,1491853222.6071650982, -0.1945,  0.0184, -0.0097,  0.0596, -0.0207,  0.0547
1491853222.6075339317,1491853222.6098330021, -0.1945,  0.0184, -0.0097,  0.0596, -0.0207,  0.0547
1491853222.6102020741,1491853222.6124999523, -0.1945,  0.0184, -0.0097,  0.0537, -0.0193,  0.0415
1491853222.6128690243,1491853222.6153059006, -0.1945,  0.0184, -0.0097,  0.0537, -0.0193,  0.0415
1491853222.6157848835,1491853222.6182129383, -0.1905, -0.0070,  0.0160,  0.0537, -0.0193,  0.0415
1491853222.6185889244,1491853222.6210119724, -0.1905, -0.0070,  0.0160,  0.0537, -0.0193,  0.0415
1491853222.6213901043,1491853222.6238129139, -0.1905, -0.0070,  0.0160,  0.0501, -0.0162,  0.0397
1491853222.6241989136,1491853222.6266250610, -0.1905, -0.0070,  0.0160,  0.0501, -0.0162,  0.0397
1491853222.6270010471,1491853222.6294291019, -0.1905, -0.0070,  0.0160,  0.0501, -0.0162,  0.0397
1491853222.6298050880,1491853222.6322309971, -0.1905, -0.0070,  0.0160,  0.0501, -0.0162,  0.0403
1491853222.6326088905,1491853222.6350810528, -0.1905, -0.0070,  0.0160,  0.0418, -0.0182,  0.0403
1491853222.6354560852,1491853222.6378800869, -0.1931,  0.0007,  0.0184,  0.0418, -0.0182,  0.0403
1491853222.6382548809,1491853222.6406800747, -0.1931,  0.0007,  0.0184,  0.0418, -0.0182,  0.0403
1491853222.6410570145,1491853222.6434819698, -0.1931,  0.0007,  0.0184,  0.0381, -0.0194,  0.0396
1491853222.6438589096,1491853222.6461811066, -0.1931,  0.0007,  0.0184,  0.0381, -0.0194,  0.0396
1491853222.6465489864,1491853222.6488490105, -0.1931,  0.0007,  0.0184,  0.0381, -0.0194,  0.0396
1491853222.6492168903,1491853222.6515140533, -0.1931,  0.0007,  0.0184,  0.0381, -0.0194,  0.0396
1491853222.6518819332,1491853222.6541979313, -0.1931,  0.0007,  0.0184,  0.0382, -0.0160,  0.0392
1491853222.6545770168,1491853222.6570060253, -0.1931,  0.0200,  0.0284,  0.0382, -0.0160,  0.0392
1491853222.6573801041,1491853222.6598091125, -0.1998,  0.0200,  0.0284,  0.0382, -0.0160,  0.0392
1491853222.6601829529,1491853222.6626050472, -0.1998,  0.0200,  0.0284,  0.0382, -0.0160,  0.0392
1491853222.6629819870,1491853222.6654059887, -0.1998,  0.0200,  0.0284,  0.0384, -0.0041,  0.0327
1491853222.6657819748,1491853222.6682069302, -0.1998,  0.0200,  0.0284,  0.0384, -0.0041,  0.0327
1491853222.6685841084,1491853222.6710081100, -0.1998,  0.0200,  0.0284,  0.0384, -0.0041,  0.0327
1491853222.6713819504,1491853222.6738119125, -0.1998,  0.0200,  0.0284,  0.0384,  0.0115,  0.0251
1491853222.6741979122,1491853222.6766259670, -0.1998,  0.0044,  0.0327,  0.0359,  0.0083,  0.0251
1491853222.6770029068,1491853222.6794300079, -0.1950,  0.0065,  0.0327,  0.0359,  0.0083,  0.0251
1491853222.6798050404,1491853222.6822299957, -0.1950,  0.0065,  0.0327,  0.0359,  0.0083,  0.0251
1491853222.6826078892,1491853222.6850769520, -0.1950,  0.0065,  0.0327,  0.0272,  0.0152,  0.0224
1491853222.6854529381,1491853222.6878790855, -0.1950,  0.0065,  0.0327,  0.0272,  0.0152,  0.0224
1491853222.6882541180,1491853222.6906809807, -0.1950,  0.0065,  0.0327,  0.0272,  0.0152,  0.0224
1491853222.6910579205,1491853222.6934790611, -0.1950,  0.0065,  0.0327,  0.0272,  0.0152,  0.0224
1491853222.6938550472,1491853222.6961739063, -0.1950,  0.0065,  0.0298,  0.0189,  0.0240,  0.0258
1491853222.6965439320,1491853222.6988461018, -0.2003,  0.0010,  0.0298,  0.0189,  0.0240,  0.0258
1491853222.6992149353,1491853222.7015190125, -0.2003,  0.0010,  0.0298,  0.0189,  0.0240,  0.0258
1491853222.7018880844,1491853222.7042019367, -0.2003,  0.0010,  0.0298,  0.0189,  0.0240,  0.0307
1491853222.7045779228,1491853222.7070059776, -0.2003,  0.0010,  0.0298,  0.0128,  0.0340,  0.0307
1491853222.7073841095,1491853222.7098081112, -0.2003,  0.0010,  0.0298,  0.0128,  0.0340,  0.0307
1491853222.7101850510,1491853222.7126109600, -0.2003,  0.0010,  0.0298,  0.0128,  0.0340,  0.0307
1491853222.7129859924,1491853222.7154181004, -0.2003,  0.0010,  0.0298,  0.0066,  0.0424,  0.0365
1491853222.7157959938,1491853222.7182269096, -0.1926,  0.0079,  0.0286,  0.0066,  0.0424,  0.0365
1491853222.7186050415,1491853222.7210309505, -0.1926,  0.0079,  0.0286,  0.0066,  0.0424,  0.0365
1491853222.7214069366,1491853222.7238340378, -0.1926,  0.0079,  0.0286,  0.0066,  0.0424,  0.0365
1491853222.7242169380,1491853222.7266469002, -0.1926,  0.0079,  0.0286,  0.0041,  0.0485,  0.0427
1491853222.7270240784,1491853222.7294540405, -0.1926,  0.0079,  0.0286,  0.0041,  0.0485,  0.0427
1491853222.7298309803,1491853222.7322530746, -0.1926,  0.0079,  0.0286,  0.0041,  0.0485,  0.0427
1491853222.7327389717,1491853222.7351279259, -0.1926,  0.0079,  0.0286,  0.0041,  0.0485,  0.0480
1491853222.7354979515,1491853222.7377939224, -0.1923,  0.0032,  0.0206,  0.0026,  0.0567,  0.0480
1491853222.7381639481,1491853222.7404620647, -0.1923,  0.0032,  0.0206,  0.0026,  0.0567,  0.0480
1491853222.7408289909,1491853222.7431280613, -0.1923,  0.0032,  0.0206,  0.0026,  0.0567,  0.0480
1491853222.7434959412,1491853222.7458488941, -0.1923,  0.0032,  0.0206,  0.0026,  0.0597,  0.0554
1491853222.7462179661,1491853222.7485170364, -0.1923,  0.0032,  0.0206, -0.0014,  0.0597,  0.0554
1491853222.7488870621,1491853222.7511858940, -0.1923,  0.0032,  0.0206, -0.0014,  0.0597,  0.0554
1491853222.7515559196,1491853222.7538549900, -0.1923,  0.0032,  0.0206, -0.0014,  0.0597,  0.0554
1491853222.7542319298,1491853222.7566509247, -0.1873,  0.0213,  0.0077,  0.0057,  0.0636,  0.0585
1491853222.7570269108,1491853222.7594509125, -0.1873,  0.0213,  0.0077,  0.0057,  0.0636,  0.0585
1491853222.7598280907,1491853222.7622509003, -0.1873,  0.0213,  0.0077,  0.0057,  0.0636,  0.0585
1491853222.7626268864,1491853222.7650671005, -0.1873,  0.0213,  0.0077,  0.0057,  0.0636,  0.0585
1491853222.7654449940,1491853222.7678740025, -0.1873,  0.0213,  0.0077,  0.0107,  0.0655,  0.0568
1491853222.7682499886,1491853222.7706720829, -0.1873,  0.0213,  0.0077,  0.0107,  0.0655,  0.0568
1491853222.7710480690,1491853222.7734711170, -0.1873,  0.0213,  0.0077,  0.0107,  0.0655,  0.0568
1491853222.7738499641,1491853222.7762839794, -0.1873,  0.0318,  0.0036,  0.0107,  0.0655,  0.0544
1491853222.7766599655,1491853222.7790820599, -0.1848,  0.0318,  0.0036,  0.0142,  0.0644,  0.0544
1491853222.7794559002,1491853222.7818799019, -0.1848,  0.0318,  0.0036,  0.0142,  0.0644,  0.0544
1491853222.7822539806,1491853222.7846620083, -0.1848,  0.0318,  0.0036,  0.0142,  0.0644,  0.0544
1491853222.7850298882,1491853222.7873289585, -0.1848,  0.0318,  0.0036,  0.0334,  0.0588,  0.0544
1491853222.7876970768,1491853222.7899971008, -0.1848,  0.0318,  0.0036,  0.0334,  0.0588,  0.0544
1491853222.7903659344,1491853222.7926619053, -0.1848,  0.0318,  0.0036,  0.0334,  0.0588,  0.0544
1491853222.7930290699,1491853222.7954111099, -0.1848,  0.0161, -0.0046,  0.0334,  0.0588,  0.0544
1491853222.7957859039,1491853222.7982120514, -0.2097,  0.0161, -0.0046,  0.0834,  0.0554,  0.0511
1491853222.7985908985,1491853222.8010120392, -0.2097,  0.0161, -0.0046,  0.0834,  0.0554,  0.0511
1491853222.8013870716,1491853222.8038110733, -0.2097,  0.0161, -0.0046,  0.0834,  0.0554,  0.0511
1491853222.8041899204,1491853222.8066151142, -0.2097,  0.0161, -0.0046,  0.0834,  0.0554,  0.0511
1491853222.8069920540,1491853222.8094220161, -0.2097,  0.0161, -0.0046,  0.1047,  0.0627,  0.0533
1491853222.8097970486,1491853222.8122229576, -0.2097,  0.0161, -0.0046,  0.1047,  0.0627,  0.0533
1491853222.8125998974,1491853222.8150739670, -0.2097,  0.0161, -0.0783,  0.1047,  0.0627,  0.0533
1491853222.8154489994,1491853222.8178761005, -0.2332, -0.0283, -0.0783,  0.1047,  0.0549,  0.0583
1491853222.8182539940,1491853222.8206789494, -0.2332, -0.0283, -0.0783,  0.1050,  0.0619,  0.0583
1491853222.8210539818,1491853222.8234779835, -0.2332, -0.0283, -0.0783,  0.1050,  0.0619,  0.0583
1491853222.8238530159,1491853222.8262948990, -0.2332, -0.0283, -0.0783,  0.1050,  0.0619,  0.0583
1491853222.8266739845,1491853222.8290929794, -0.2332, -0.0283, -0.0783,  0.0807,  0.0619,  0.0696
1491853222.8294680119,1491853222.8318979740, -0.2332, -0.0283, -0.0783,  0.0807,  0.0619,  0.0696
1491853222.8322730064,1491853222.8346800804, -0.2332, -0.0283, -0.0236,  0.0807,  0.0619,  0.0696
1491853222.8355660439,1491853222.8378610611, -0.2239,  0.0088, -0.0244,  0.0807,  0.0619,  0.0852
1491853222.8382329941,1491853222.8405330181, -0.2239,  0.0088, -0.0244,  0.0755,  0.0490,  0.0840
1491853222.8409020901,1491853222.8431921005, -0.2239,  0.0088, -0.0244,  0.0755,  0.0490,  0.0840
1491853222.8435630798,1491853222.8460159302, -0.2239,  0.0088, -0.0244,  0.0755,  0.0490,  0.0840
1491853222.8463881016,1491853222.8486850262, -0.2239,  0.0088, -0.0244,  0.0755,  0.0412,  0.1082
1491853222.8491659164,1491853222.8514559269, -0.2239,  0.0088, -0.0244,  0.0603,  0.0447,  0.1082
1491853222.8518259525,1491853222.8541939259, -0.2239,  0.0088, -0.0244,  0.0603,  0.0447,  0.1082
1491853222.8545820713,1491853222.8568921089, -0.2766, -0.0203, -0.0276,  0.0603,  0.0447,  0.1082
1491853222.8572609425,1491853222.8595509529, -0.2766, -0.0203, -0.0276,  0.0346,  0.0491,  0.1448
1491853222.8599209785,1491853222.8622119427, -0.2766, -0.0203, -0.0276,  0.0346,  0.0491,  0.1448
1491853222.8625819683,1491853222.8648910522, -0.2766, -0.0203, -0.0276,  0.0346,  0.0491,  0.1448
1491853222.8652589321,1491853222.8675510883, -0.2766, -0.0203, -0.0276,  0.0346,  0.0491,  0.1448
1491853222.8679180145,1491853222.8702108860, -0.2766, -0.0203, -0.0276,  0.0325,  0.0801,  0.1837
1491853222.8705790043,1491853222.8728730679, -0.2766, -0.0203, -0.0276,  0.0325,  0.0801,  0.1837
1491853222.8732419014,1491853222.8755838871, -0.2698, -0.0139, -0.0031,  0.0325,  0.0801,  0.1837
1491853222.8759551048,1491853222.8782479763, -0.2698, -0.0139, -0.0031,  0.0325,  0.0801,  0.1837
1491853222.8786180019,1491853222.8809161186, -0.2698, -0.0139, -0.0031,  0.0508,  0.1039,  0.2125
1491853222.8812839985,1491853222.8835780621, -0.2698, -0.0139, -0.0031,  0.0508,  0.1039,  0.2125
1491853222.8839468956,1491853222.8862531185, -0.2698, -0.0139, -0.0031,  0.0508,  0.1039,  0.2125
1491853222.8866219521,1491853222.8889210224, -0.2698, -0.0139, -0.0031,  0.0508,  0.1039,  0.2125
1491853222.8892900944,1491853222.8915910721, -0.2698, -0.0139, -0.0031,  0.0589,  0.1226,  0.2430
1491853222.8919630051,1491853222.8943119049, -0.2698, -0.0139, -0.0656,  0.0589,  0.1226,  0.2430
1491853222.8946900368,1491853222.8971140385, -0.3159, -0.0511, -0.0656,  0.0589,  0.1226,  0.2430
1491853222.8974900246,1491853222.8999130726, -0.3159, -0.0511, -0.0656,  0.0589,  0.1226,  0.2785
1491853222.9002900124,1491853222.9027140141, -0.3159, -0.0511, -0.0656,  0.0631,  0.1667,  0.2785
1491853222.9030919075,1491853222.9055299759, -0.3159, -0.0511, -0.0656,  0.0631,  0.1667,  0.2785
1491853222.9059059620,1491853222.9083330631, -0.3159, -0.0511, -0.0656,  0.0631,  0.1667,  0.2785
1491853222.9087090492,1491853222.9111371040, -0.3159, -0.0511, -0.0656,  0.0805,  0.0937,  0.3024
1491853222.9115118980,1491853222.9139380455, -0.3159, -0.0511,  0.0047,  0.0805,  0.0937,  0.3024
1491853222.9143149853,1491853222.9167370796, -0.3013, -0.0862,  0.0030,  0.0805,  0.0937,  0.3024
1491853222.9171149731,1491853222.9195361137, -0.3013, -0.0862,  0.0030,  0.0805,  0.0937,  0.3024
1491853222.9199120998,1491853222.9223370552, -0.3013, -0.0862,  0.0030,  0.0415,  0.0820,  0.3606
1491853222.9227120876,1491853222.9251470566, -0.3013, -0.0862,  0.0030,  0.0415,  0.0820,  0.3606
1491853222.9255220890,1491853222.9279479980, -0.3013, -0.0862,  0.0030,  0.0415,  0.0820,  0.3606
1491853222.9283239841,1491853222.9307510853, -0.3013, -0.0862,  0.0030,  0.0415,  0.0820,  0.4060
1491853222.9311270714,1491853222.9335510731, -0.3013, -0.0862,  0.0030,  0.0660,  0.0829,  0.4060
1491853222.9339299202,1491853222.9362499714, -0.3007, -0.1404,  0.0582,  0.0660,  0.0829,  0.4060
1491853222.9366190434,1491853222.9389190674, -0.3007, -0.1404,  0.0582,  0.0660,  0.0829,  0.4060
1491853222.9392869473,1491853222.9415850639, -0.3007, -0.1404,  0.0582,  0.0895,  0.0575,  0.4608
1491853222.9419538975,1491853222.9443089962, -0.3007, -0.1404,  0.0582,  0.0919,  0.0575,  0.4608
1491853222.9446849823,1491853222.9470949173, -0.3007, -0.1404,  0.0582,  0.0919,  0.0575,  0.4608
1491853222.9474720955,1491853222.9498810768, -0.3007, -0.1404,  0.0582,  0.0919,  0.0575,  0.4608
1491853222.9502561092,1491853222.9526629448, -0.3007, -0.1404,  0.0582,  0.1704,  0.0118,  0.5376
1491853222.9530389309,1491853222.9554440975, -0.3571, -0.2021, -0.1208,  0.1704,  0.0118,  0.5376
1491853222.9558179379,1491853222.9582030773, -0.3571, -0.2021, -0.1208,  0.1704,  0.0118,  0.5376
1491853222.9585790634,1491853222.9611270428, -0.3571, -0.2021, -0.1208,  0.1704,  0.0118,  0.5376
1491853222.9615149498,1491853222.9638218880, -0.3571, -0.2021, -0.1208,  0.1679,  0.0916,  0.6296
1491853222.9643330574,1491853222.9666380882, -0.3571, -0.2021, -0.1208,  0.1679,  0.0916,  0.6296
1491853222.9670069218,1491853222.9693040848, -0.3571, -0.2021, -0.1208,  0.1679,  0.0916,  0.6296
1491853222.9696760178,1491853222.9719688892, -0.3571, -0.2021, -0.1208,  0.1679,  0.0916,  0.7128
1491853222.9723389149,1491853222.9747419357, -0.5202, -0.2163,  0.0689,  0.1630,  0.0253,  0.7128
1491853222.9751110077,1491853222.9774100780, -0.5202, -0.2163,  0.0689,  0.1630,  0.0253,  0.7128
1491853222.9777779579,1491853222.9800760746, -0.5202, -0.2163,  0.0689,  0.1630,  0.0253,  0.7128
1491853222.9804439545,1491853222.9827380180, -0.5202, -0.2163,  0.0689,  0.0692,  0.0301,  0.8006
1491853222.9831080437,1491853222.9854478836, -0.5202, -0.2163,  0.0689,  0.0636,  0.0301,  0.8006
1491853222.9858160019,1491853222.9881129265, -0.5202, -0.2163,  0.0689,  0.0636,  0.0301,  0.8006
1491853222.9884819984,1491853222.9907770157, -0.5202, -0.2163,  0.0689,  0.0636,  0.0301,  0.8006
1491853222.9911439419,1491853222.9934449196, -0.5202, -0.2163,  0.0200, -0.0027,  0.1800,  0.8431
1491853222.9938149452,1491853222.9961709976, -0.5328,  0.1664,  0.0200, -0.0027,  0.1800,  0.8431
1491853222.9965419769,1491853222.9988310337, -0.5328,  0.1664,  0.0200, -0.0027,  0.1800,  0.8431
1491853222.9992010593,1491853223.0014970303, -0.5328,  0.1664,  0.0200, -0.0027,  0.1800,  0.8431
1491853223.0018680096,1491853223.0042340755, -0.5328,  0.1664,  0.0200, -0.0159,  0.1890,  0.8292
1491853223.0046210289,1491853223.0070569515, -0.5328,  0.1664,  0.0200, -0.0159,  0.1890,  0.8292
1491853223.0074338913,1491853223.0098509789, -0.5328,  0.1664,  0.0200, -0.0159,  0.1890,  0.8292
1491853223.0102279186,1491853223.0126500130, -0.5328,  0.1664,  0.0200, -0.0159,  0.1890,  0.8292
1491853223.0130269527,1491853223.0154979229, -0.6510, -0.0705,  0.0501,  0.0419,  0.0645,  0.7938
1491853223.0158739090,1491853223.0182979107, -0.6510, -0.0705,  0.0501,  0.0419,  0.0645,  0.7938
1491853223.0186738968,1491853223.0210990906, -0.6510, -0.0705,  0.0501,  0.0419,  0.0645,  0.7938
1491853223.0214760303,1491853223.0239000320, -0.6510, -0.0705,  0.0501, -0.0363,  0.1109,  0.7221
1491853223.0242860317,1491853223.0265889168, -0.6510, -0.0705,  0.0501, -0.0375,  0.1109,  0.7221
1491853223.0269579887,1491853223.0292580128, -0.6510, -0.0705,  0.0501, -0.0375,  0.1109,  0.7221
1491853223.0296270847,1491853223.0319290161, -0.6510, -0.0705,  0.0501, -0.0375,  0.1109,  0.7221
1491853223.0322980881,1491853223.0346479416, -0.1579, -0.1628,  0.1031, -0.0722,  0.1366,  0.6007
1491853223.0350189209,1491853223.0373210907, -0.1579, -0.1628,  0.1031, -0.0722,  0.1366,  0.6007
1491853223.0376899242,1491853223.0399899483, -0.1579, -0.1628,  0.1031, -0.0722,  0.1366,  0.6007
1491853223.0403599739,1491853223.0426619053, -0.1579, -0.1628,  0.1031, -0.0722,  0.1366,  0.6007
1491853223.0430309772,1491853223.0453770161, -0.1579, -0.1628,  0.1031, -0.0384,  0.1057,  0.4466
1491853223.0457499027,1491853223.0480520725, -0.1579, -0.1628,  0.1031, -0.0384,  0.1057,  0.4466
1491853223.0484209061,1491853223.0507240295, -0.1579, -0.1628,  0.1031, -0.0384,  0.1057,  0.4466
1491853223.0510940552,1491853223.0533890724, -0.1579, -0.1406,  0.0737, -0.0384,  0.1057,  0.4466
1491853223.0537579060,1491853223.0562279224, -0.1006, -0.1406,  0.0737, -0.0667,  0.1000,  0.2076
1491853223.0566051006,1491853223.0589959621, -0.1006, -0.1406,  0.0737, -0.0667,  0.1000,  0.2076
1491853223.0593879223,1491853223.0618300438, -0.1006, -0.1406,  0.0737, -0.0667,  0.1000,  0.2076
1491853223.0622088909,1491853223.0646750927, -0.1006, -0.1406,  0.0737, -0.0667,  0.0922, -0.0217
1491853223.0650520325,1491853223.0674750805, -0.1006, -0.1406,  0.0737, -0.1564,  0.0932, -0.0217
1491853223.0678520203,1491853223.0702769756, -0.1006, -0.1406,  0.0737, -0.1564,  0.0932, -0.0217
1491853223.0706529617,1491853223.0730819702, -0.1006, -0.1797,  0.0309, -0.1564,  0.0932, -0.0217
1491853223.0734579563,1491853223.0758008957, -0.2601, -0.1721,  0.0309, -0.2430,  0.1205, -0.1198
1491853223.0761709213,1491853223.0784730911, -0.2601, -0.1721,  0.0309, -0.2430,  0.1205, -0.1198
1491853223.0789608955,1491853223.0812680721, -0.2601, -0.1721,  0.0309, -0.2430,  0.1205, -0.1198
1491853223.0816390514,1491853223.0839428902, -0.2601, -0.1721,  0.0309, -0.2430,  0.1205, -0.1198
1491853223.0843648911,1491853223.0867919922, -0.2601, -0.1721,  0.0309, -0.2217,  0.1259, -0.1651
1491853223.0871698856,1491853223.0895950794, -0.2601, -0.1721,  0.0309, -0.2217,  0.1259, -0.1651
1491853223.0899710655,1491853223.0923950672, -0.2601, -0.1721,  0.0075, -0.2217,  0.1259, -0.1651
1491853223.0927710533,1491853223.0951991081, -0.1555, -0.0634,  0.0056, -0.2217,  0.1259, -0.2240
1491853223.0955770016,1491853223.0980050564, -0.1555, -0.0634,  0.0056, -0.2003,  0.1189, -0.2240
1491853223.0983839035,1491853223.1009030342, -0.1555, -0.0634,  0.0056, -0.2003,  0.1189, -0.2240
1491853223.1012818813,1491853223.1037070751, -0.1555, -0.0634,  0.0056, -0.2003,  0.1189, -0.2240
1491853223.1040949821,1491853223.1065170765, -0.1555, -0.0634,  0.0056, -0.1503,  0.1182, -0.3263
1491853223.1068949699,1491853223.1093211174, -0.1555, -0.0634,  0.0056, -0.1503,  0.1182, -0.3263
1491853223.1096971035,1491853223.1121220589, -0.1555, -0.0634,  0.0134, -0.1503,  0.1182, -0.3263
1491853223.1124989986,1491853223.1148879528, -0.0597,  0.0255,  0.0112, -0.1503,  0.1182, -0.3263
1491853223.1152589321,1491853223.1175611019, -0.0597,  0.0255,  0.0112, -0.0793,  0.1295, -0.4641
1491853223.1179299355,1491853223.1202321053, -0.0597,  0.0255,  0.0112, -0.0793,  0.1295, -0.4641
1491853223.1205999851,1491853223.1229069233, -0.0597,  0.0255,  0.0112, -0.0793,  0.1295, -0.4641
1491853223.1232728958,1491853223.1257278919, -0.0597,  0.0255,  0.0112, -0.0793,  0.1295, -0.4641
1491853223.1261019707,1491853223.1285300255, -0.0597,  0.0255,  0.0112, -0.0145,  0.1429, -0.5948
1491853223.1289079189,1491853223.1313400269, -0.0597,  0.0255,  0.0112, -0.0145,  0.1429, -0.5948
1491853223.1317141056,1491853223.1341519356, -0.0525, -0.0443, -0.0010, -0.0145,  0.1429, -0.5948
1491853223.1345210075,1491853223.1368210316, -0.0525, -0.0443, -0.0010, -0.0145,  0.1429, -0.6809
1491853223.1371901035,1491853223.1394939423, -0.0525, -0.0443, -0.0010,  0.0413,  0.1409, -0.6809
1491853223.1398661137,1491853223.1421630383, -0.0525, -0.0443, -0.0010,  0.0413,  0.1409, -0.6809
1491853223.1425349712,1491853223.1449759007, -0.0525, -0.0443, -0.0010,  0.0413,  0.1409, -0.6809
1491853223.1453449726,1491853223.1476540565, -0.0525, -0.0443, -0.0010,  0.1003,  0.1194, -0.7195
1491853223.1480240822,1491853223.1503241062, -0.0525, -0.0443, -0.0010,  0.1003,  0.1194, -0.7195
1491853223.1506929398,1491853223.1530010700, -0.1435, -0.0949, -0.0058,  0.1003,  0.1194, -0.7195
1491853223.1533730030,1491853223.1558470726, -0.1435, -0.0949, -0.0058,  0.1003,  0.1194, -0.7195
1491853223.1562259197,1491853223.1586558819, -0.1435, -0.0949, -0.0058,  0.1339,  0.0987, -0.7258
1491853223.1590330601,1491853223.1614620686, -0.1435, -0.0949, -0.0058,  0.1339,  0.0987, -0.7258
1491853223.1618399620,1491853223.1642599106, -0.1435, -0.0949, -0.0058,  0.1339,  0.0987, -0.7258
1491853223.1646308899,1491853223.1669371128, -0.1435, -0.0949, -0.0058,  0.1339,  0.0987, -0.7258
1491853223.1673069000,1491853223.1696081161, -0.1435, -0.0949, -0.0058,  0.1417,  0.0775, -0.7131
1491853223.1699779034,1491853223.1722760201, -0.1435, -0.0721,  0.0178,  0.1417,  0.0775, -0.7131
1491853223.1726450920,1491853223.1750080585, -0.1506, -0.0721,  0.0178,  0.1417,  0.0775, -0.7131
1491853223.1753859520,1491853223.1778080463, -0.1506, -0.0721,  0.0178,  0.1417,  0.0775, -0.6967
1491853223.1781859398,1491853223.1806080341, -0.1506, -0.0721,  0.0178,  0.1329,  0.0455, -0.6967
1491853223.1809840202,1491853223.1834158897, -0.1506, -0.0721,  0.0178,  0.1329,  0.0455, -0.6967
1491853223.1837930679,1491853223.1862189770, -0.1506, -0.0721,  0.0178,  0.1329,  0.0455, -0.6967
1491853223.1865949631,1491853223.1890230179, -0.1506, -0.0721,  0.0178,  0.1262,  0.0071, -0.6842
1491853223.1893999577,1491853223.1918270588, -0.1506, -0.0174,  0.0153,  0.1262,  0.0071, -0.6842
1491853223.1923139095,1491853223.1947479248, -0.1467, -0.0223,  0.0153,  0.1262,  0.0071, -0.6842
1491853223.1951229572,1491853223.1975491047, -0.1467, -0.0223,  0.0153,  0.1262,  0.0071, -0.6842
1491853223.1979250908,1491853223.2003519535, -0.1467, -0.0223,  0.0153,  0.1136, -0.0429, -0.6797
1491853223.2007279396,1491853223.2031519413, -0.1467, -0.0223,  0.0153,  0.1136, -0.0429, -0.6797
1491853223.2035288811,1491853223.2059690952, -0.1467, -0.0223,  0.0153,  0.1136, -0.0429, -0.6797
1491853223.2063479424,1491853223.2087709904, -0.1467, -0.0223,  0.0153,  0.1136, -0.0898, -0.6796
1491853223.2091469765,1491853223.2115740776, -0.1467, -0.0223,  0.0154,  0.1029, -0.0911, -0.6796
1491853223.2119510174,1491853223.2143650055, -0.1816, -0.0031,  0.0154,  0.1029, -0.0911, -0.6796
1491853223.2147369385,1491853223.2170441151, -0.1816, -0.0031,  0.0154,  0.1029, -0.0911, -0.6796
1491853223.2174139023,1491853223.2197189331, -0.1816, -0.0031,  0.0154,  0.0777, -0.1377, -0.6768
1491853223.2200880051,1491853223.2223858833, -0.1816, -0.0031,  0.0154,  0.0777, -0.1377, -0.6768
1491853223.2227540016,1491853223.2251269817, -0.1816, -0.0031,  0.0154,  0.0777, -0.1377, -0.6768
1491853223.2255039215,1491853223.2279310226, -0.1816, -0.0031,  0.0154,  0.0777, -0.1377, -0.6768
1491853223.2283070087,1491853223.2307310104, -0.1816, -0.0031,  0.0154,  0.0531, -0.1747, -0.6739
1491853223.2311069965,1491853223.2335340977, -0.2160,  0.0033,  0.0202,  0.0531, -0.1747, -0.6739
1491853223.2339100838,1491853223.2363379002, -0.2160,  0.0033,  0.0202,  0.0531, -0.1747, -0.6739
1491853223.2367150784,1491853223.2391409874, -0.2160,  0.0033,  0.0202,  0.0531, -0.1747, -0.6739
1491853223.2395169735,1491853223.2419509888, -0.2160,  0.0033,  0.0202,  0.0349, -0.2014, -0.6788
1491853223.2423269749,1491853223.2447628975, -0.2160,  0.0033,  0.0202,  0.0349, -0.2014, -0.6788
1491853223.2451379299,1491853223.2475640774, -0.2160,  0.0033,  0.0202,  0.0349, -0.2014, -0.6788
1491853223.2479391098,1491853223.2503728867, -0.2160,  0.0033,  0.0202,  0.0193, -0.2252, -0.6945
1491853223.2507491112,1491853223.2531750202, -0.2462,  0.0075,  0.0146,  0.0208, -0.2252, -0.6945
1491853223.2535529137,1491853223.2560009956, -0.2462,  0.0075,  0.0146,  0.0208, -0.2252, -0.6945
1491853223.2563769817,1491853223.2587969303, -0.2462,  0.0075,  0.0146,  0.0208, -0.2252, -0.6945
1491853223.2591741085,1491853223.2615969181, -0.2462,  0.0075,  0.0146,  0.0181, -0.2379, -0.7167
1491853223.2619760036,1491853223.2643890381, -0.2462,  0.0075,  0.0146,  0.0181, -0.2379, -0.7167
1491853223.2647581100,1491853223.2670569420, -0.2462,  0.0075,  0.0146,  0.0181, -0.2379, -0.7167
1491853223.2674269676,1491853223.2697310448, -0.2462,  0.0075,  0.0146,  0.0181, -0.2379, -0.7167
1491853223.2701010704,1491853223.2724061012, -0.3170, -0.0089, -0.0036,  0.0205, -0.2416, -0.7332
1491853223.2727758884,1491853223.2751410007, -0.3170, -0.0089, -0.0036,  0.0205, -0.2416, -0.7332
1491853223.2755200863,1491853223.2779469490, -0.3170, -0.0089, -0.0036,  0.0205, -0.2416, -0.7332
1491853223.2783238888,1491853223.2807509899, -0.3170, -0.0089, -0.0036,  0.0205, -0.2416, -0.7467
1491853223.2811279297,1491853223.2835540771, -0.3170, -0.0089, -0.0036,  0.0313, -0.2372, -0.7467
1491853223.2839329243,1491853223.2863769531, -0.3170, -0.0089, -0.0036,  0.0313, -0.2372, -0.7467
1491853223.2867550850,1491853223.2891769409, -0.3170, -0.0089, -0.0036,  0.0313, -0.2372, -0.7467
1491853223.2895541191,1491853223.2919790745, -0.4001,  0.0236, -0.0351,  0.0517, -0.2251, -0.7608
1491853223.2923560143,1491853223.2947900295, -0.4001,  0.0236, -0.0351,  0.0517, -0.2251, -0.7608
1491853223.2951660156,1491853223.2975931168, -0.4001,  0.0236, -0.0351,  0.0517, -0.2251, -0.7608
1491853223.2979700565,1491853223.3003990650, -0.4001,  0.0236, -0.0351,  0.0517, -0.2251, -0.7608
1491853223.3007750511,1491853223.3031990528, -0.4001,  0.0236, -0.0351,  0.0615, -0.2104, -0.7720
1491853223.3035759926,1491853223.3060019016, -0.4001,  0.0236, -0.0351,  0.0615, -0.2104, -0.7720
1491853223.3063790798,1491853223.3088099957, -0.4001,  0.0236, -0.0351,  0.0615, -0.2104, -0.7720
1491853223.3092958927,1491853223.3117229939, -0.4979,  0.0523, -0.0488,  0.0615, -0.1947, -0.7698
1491853223.3120989799,1491853223.3145101070, -0.4979,  0.0523, -0.0488,  0.0552, -0.1896, -0.7698
1491853223.3148810863,1491853223.3171839714, -0.4979,  0.0523, -0.0488,  0.0552, -0.1896, -0.7698
1491853223.3175508976,1491853223.3198509216, -0.4979,  0.0523, -0.0488,  0.0552, -0.1896, -0.7698
1491853223.3202180862,1491853223.3225200176, -0.4979,  0.0523, -0.0488,  0.0403, -0.1625, -0.7382
1491853223.3228900433,1491853223.3252959251, -0.4979,  0.0523, -0.0488,  0.0403, -0.1625, -0.7382
1491853223.3256700039,1491853223.3280959129, -0.4979,  0.0523, -0.0488,  0.0403, -0.1625, -0.7382
1491853223.3284718990,1491853223.3309040070, -0.4979,  0.1652, -0.0520,  0.0403, -0.1625, -0.7382
1491853223.3312799931,1491853223.3337070942, -0.5404,  0.1652, -0.0520,  0.0113, -0.1474, -0.6810
1491853223.3340919018,1491853223.3365159035, -0.5404,  0.1652, -0.0520,  0.0113, -0.1474, -0.6810
1491853223.3368949890,1491853223.3393220901, -0.5404,  0.1652, -0.0520,  0.0113, -0.1474, -0.6810
1491853223.3396980762,1491853223.3421208858, -0.5404,  0.1652, -0.0520,  0.0113, -0.1474, -0.6263
1491853223.3424971104,1491853223.3449239731, -0.5404,  0.1652, -0.0520, -0.0085, -0.1376, -0.6260
1491853223.3453030586,1491853223.3477261066, -0.5404,  0.1652, -0.0520, -0.0085, -0.1376, -0.6260
1491853223.3481040001,1491853223.3505361080, -0.5404,  0.3605, -0.0092, -0.0085, -0.1376, -0.6260
1491853223.3509149551,1491853223.3533470631, -0.4499,  0.3672, -0.0092, -0.0077, -0.1194, -0.5665
1491853223.3537240028,1491853223.3561639786, -0.4499,  0.3672, -0.0092, -0.0077, -0.1194, -0.5665
1491853223.3565430641,1491853223.3589711189, -0.4499,  0.3672, -0.0092, -0.0077, -0.1194, -0.5665
1491853223.3593490124,1491853223.3617839813, -0.4499,  0.3672, -0.0092, -0.0077, -0.1194, -0.5665
1491853223.3621609211,1491853223.3645820618, -0.4499,  0.3672, -0.0092,  0.0079, -0.0995, -0.4734
1491853223.3649530411,1491853223.3672599792, -0.4499,  0.3672, -0.0092,  0.0079, -0.0995, -0.4734
1491853223.3676300049,1491853223.3699219227, -0.4499,  0.3672, -0.0815,  0.0079, -0.0995, -0.4734
1491853223.3702909946,1491853223.3725900650, -0.3469,  0.5118, -0.0815,  0.0079, -0.0995, -0.4734
1491853223.3729588985,1491853223.3752799034, -0.3469,  0.5118, -0.0815,  0.0341, -0.0815, -0.3376
1491853223.3756489754,1491853223.3779480457, -0.3469,  0.5118, -0.0815,  0.0341, -0.0815, -0.3376
1491853223.3783171177,1491853223.3806149960, -0.3469,  0.5118, -0.0815,  0.0341, -0.0815, -0.3376
1491853223.3809831142,1491853223.3832828999, -0.3469,  0.5118, -0.0815,  0.0341, -0.0815, -0.1830
1491853223.3836519718,1491853223.3861169815, -0.3469,  0.5118, -0.0815,  0.0580, -0.0674, -0.1830
1491853223.3864939213,1491853223.3889200687, -0.3469,  0.5118, -0.0815,  0.0580, -0.0674, -0.1830
1491853223.3892979622,1491853223.3917229176, -0.2953,  0.5880, -0.1280,  0.0580, -0.0674, -0.1830
1491853223.3920979500,1491853223.3945300579, -0.2953,  0.5880, -0.1280,  0.0649, -0.0452, -0.0507
1491853223.3949079514,1491853223.3973340988, -0.2953,  0.5880, -0.1280,  0.0649, -0.0452, -0.0507
1491853223.3977079391,1491853223.4001309872, -0.2953,  0.5880, -0.1280,  0.0649, -0.0452, -0.0507
1491853223.4005060196,1491853223.4029309750, -0.2953,  0.5880, -0.1280,  0.0649, -0.0452, -0.0507
1491853223.4033079147,1491853223.4057519436, -0.2953,  0.5880, -0.1280,  0.0595, -0.0039,  0.0547
1491853223.4061288834,1491853223.4085540771, -0.2953,  0.5880, -0.1280,  0.0595, -0.0039,  0.0547
1491853223.4089310169,1491853223.4113590717, -0.3274,  0.4519, -0.1058,  0.0595, -0.0039,  0.0547
1491853223.4117360115,1491853223.4141690731, -0.3274,  0.4519, -0.1058,  0.0595, -0.0039,  0.1484
1491853223.4145491123,1491853223.4169740677, -0.3274,  0.4519, -0.1058,  0.0247,  0.0457,  0.1554
1491853223.4173500538,1491853223.4197769165, -0.3274,  0.4519, -0.1058,  0.0247,  0.0457,  0.1554
1491853223.4201519489,1491853223.4225759506, -0.3274,  0.4519, -0.1058,  0.0247,  0.0457,  0.1554
1491853223.4229528904,1491853223.4253239632, -0.3274,  0.4519, -0.1058, -0.0041,  0.0874,  0.2398
1491853223.4258029461,1491853223.4281079769, -0.3274,  0.4519, -0.1058, -0.0041,  0.0874,  0.2398
1491853223.4284780025,1491853223.4307830334, -0.3159,  0.3597, -0.0866, -0.0041,  0.0874,  0.2398
1491853223.4311521053,1491853223.4334540367, -0.3159,  0.3597, -0.0866, -0.0041,  0.0874,  0.2398
1491853223.4338231087,1491853223.4362869263, -0.3159,  0.3597, -0.0866, -0.0006,  0.1121,  0.2870
1491853223.4366669655,1491853223.4390909672, -0.3159,  0.3597, -0.0866, -0.0006,  0.1121,  0.2870
1491853223.4394690990,1491853223.4418931007, -0.3159,  0.3597, -0.0866, -0.0006,  0.1121,  0.2870
1491853223.4422678947,1491853223.4447040558, -0.3159,  0.3597, -0.0866, -0.0006,  0.1121,  0.2870
1491853223.4450809956,1491853223.4475030899, -0.3159,  0.3597, -0.0866,  0.0524,  0.1181,  0.3442
1491853223.4478778839,1491853223.4503080845, -0.1315, -0.4962,  0.0694,  0.0524,  0.1181,  0.3442
1491853223.4506819248,1491853223.4531090260, -0.1315, -0.4962,  0.0694,  0.0524,  0.1181,  0.3442
1491853223.4534859657,1491853223.4559218884, -0.1315, -0.4962,  0.0694,  0.0524,  0.2258,  0.1750
1491853223.4562990665,1491853223.4587149620, -0.1315, -0.4962,  0.0694, -0.1010,  0.2258,  0.1750
1491853223.4590919018,1491853223.4615170956, -0.1315, -0.4962,  0.0694, -0.1010,  0.2258,  0.1750
1491853223.4618930817,1491853223.4643700123, -0.1315, -0.4962,  0.0694, -0.1010,  0.2258,  0.1750
1491853223.4647490978,1491853223.4671700001, -0.1315, -0.4962,  0.0694, -0.2563,  0.0122,  0.5238
1491853223.4675459862,1491853223.4699690342, -0.2574, -0.2047, -0.2102, -0.2563,  0.0122,  0.5238
1491853223.4703419209,1491853223.4727709293, -0.2574, -0.2047, -0.2102, -0.2563,  0.0122,  0.5238
1491853223.4731459618,1491853223.4755110741, -0.2574, -0.2047, -0.2102, -0.2563,  0.0122,  0.5238
1491853223.4758820534,1491853223.4781870842, -0.2574, -0.2047, -0.2102, -0.4330,  0.0103,  0.9156
1491853223.4785540104,1491853223.4808568954, -0.2574, -0.2047, -0.2102, -0.4330,  0.0103,  0.9156
1491853223.4812250137,1491853223.4835278988, -0.2574, -0.2047, -0.2102, -0.4330,  0.0103,  0.9156
1491853223.4838960171,1491853223.4862239361, -0.2574, -0.2047, -0.2102, -0.4330,  0.0103,  0.8532
1491853223.4865920544,1491853223.4888889790, -0.2574, -0.2047,  0.0512, -0.2281,  0.1447,  0.8532
1491853223.4892580509,1491853223.4915580750, -0.0687,  0.5547,  0.0512, -0.2281,  0.1447,  0.8532
1491853223.4919281006,1491853223.4943110943, -0.0687,  0.5547,  0.0512, -0.2281,  0.1447,  0.8532
1491853223.4946870804,1491853223.4971139431, -0.0687,  0.5547,  0.0512, -0.2281, -0.0741,  0.4873
1491853223.4974908829,1491853223.4999170303, -0.0687,  0.5547,  0.0512, -0.2231, -0.0741,  0.4873
1491853223.5002930164,1491853223.5027170181, -0.0687,  0.5547,  0.0512, -0.2231, -0.0741,  0.4873
1491853223.5030939579,1491853223.5055329800, -0.0687,  0.5547,  0.0512, -0.2231, -0.0741,  0.4873
1491853223.5059089661,1491853223.5083398819, -0.0687,  0.5547,  0.0512, -0.0373, -0.0613,  0.4083
1491853223.5087170601,1491853223.5111370087, -0.2030,  0.2015, -0.0469, -0.0373, -0.0613,  0.4083
1491853223.5115149021,1491853223.5139338970, -0.2030,  0.2015, -0.0469, -0.0373, -0.0613,  0.4083
1491853223.5143089294,1491853223.5167400837, -0.2030,  0.2015, -0.0469, -0.0373, -0.0613,  0.4083
1491853223.5171151161,1491853223.5195469856, -0.2030,  0.2015, -0.0469,  0.0674,  0.0031,  0.3820
1491853223.5199239254,1491853223.5223519802, -0.2030,  0.2015, -0.0469,  0.0674,  0.0031,  0.3820
1491853223.5227301121,1491853223.5251150131, -0.2030,  0.2015, -0.0469,  0.0674,  0.0031,  0.3820
1491853223.5254840851,1491853223.5277841091, -0.2030,  0.2015, -0.0469,  0.0674, -0.0204,  0.3039
1491853223.5281529427,1491853223.5304579735, -0.2078,  0.0262, -0.0413,  0.0479, -0.0201,  0.3039
1491853223.5308279991,1491853223.5331308842, -0.2078,  0.0262, -0.0413,  0.0479, -0.0201,  0.3039
1491853223.5334980488,1491853223.5359179974, -0.2078,  0.0262, -0.0413,  0.0479, -0.0201,  0.3039
1491853223.5362958908,1491853223.5387229919, -0.2078,  0.0262, -0.0413,  0.0019, -0.0309,  0.2570
1491853223.5390989780,1491853223.5415239334, -0.2078,  0.0262, -0.0413,  0.0019, -0.0309,  0.2570
1491853223.5420069695,1491853223.5444810390, -0.2078,  0.0262, -0.0413,  0.0019, -0.0309,  0.2570
1491853223.5448589325,1491853223.5472869873, -0.2078,  0.0262, -0.0413,  0.0019, -0.0309,  0.2570
1491853223.5476639271,1491853223.5500888824, -0.1919,  0.0820, -0.0154,  0.0289, -0.0200,  0.2251
1491853223.5504651070,1491853223.5528950691, -0.1919,  0.0820, -0.0154,  0.0289, -0.0200,  0.2251
1491853223.5532689095,1491853223.5557050705, -0.1919,  0.0820, -0.0154,  0.0289, -0.0200,  0.2251
1491853223.5560829639,1491853223.5585060120, -0.1919,  0.0820, -0.0154,  0.0289, -0.0200,  0.1859
1491853223.5588810444,1491853223.5613069534, -0.1919,  0.0820, -0.0154,  0.0715, -0.0161,  0.1859
1491853223.5616819859,1491853223.5641179085, -0.1919,  0.0820, -0.0154,  0.0715, -0.0161,  0.1859
1491853223.5644929409,1491853223.5669279099, -0.1919,  0.0820, -0.0154,  0.0715, -0.0161,  0.1859
1491853223.5673029423,1491853223.5697300434, -0.2023,  0.0457,  0.0333,  0.0397, -0.0226,  0.1437
1491853223.5701050758,1491853223.5725300312, -0.2023,  0.0457,  0.0333,  0.0397, -0.0226,  0.1437
1491853223.5729050636,1491853223.5752880573, -0.2023,  0.0457,  0.0333,  0.0397, -0.0226,  0.1437
1491853223.5756599903,1491853223.5779590607, -0.2023,  0.0457,  0.0333,  0.0397, -0.0226,  0.1437
1491853223.5783269405,1491853223.5806300640, -0.2023,  0.0457,  0.0333,  0.0369, -0.0157,  0.1054
1491853223.5809979439,1491853223.5833060741, -0.2023,  0.0457,  0.0333,  0.0369, -0.0157,  0.1054
1491853223.5836730003,1491853223.5861248970, -0.2023,  0.0457,  0.0333,  0.0369, -0.0157,  0.1054
1491853223.5864999294,1491853223.5889320374, -0.1949,  0.0251, -0.0079,  0.0369, -0.0157,  0.0819
1491853223.5893070698,1491853223.5917370319, -0.1949,  0.0251, -0.0079,  0.0621,  0.0114,  0.0831
1491853223.5921139717,1491853223.5945549011, -0.1949,  0.0251, -0.0079,  0.0621,  0.0114,  0.0831
1491853223.5949299335,1491853223.5973620415, -0.1949,  0.0251, -0.0079,  0.0621,  0.0114,  0.0831
1491853223.5977389812,1491853223.6001670361, -0.1949,  0.0251, -0.0079,  0.0621,  0.0129,  0.0626
1491853223.6005430222,1491853223.6029698849, -0.1949,  0.0251, -0.0079,  0.0561,  0.0129,  0.0626
1491853223.6033461094,1491853223.6057898998, -0.1949,  0.0251, -0.0079,  0.0561,  0.0129,  0.0626
1491853223.6061658859,1491853223.6085979939, -0.1870,  0.0178, -0.0294,  0.0561,  0.0129,  0.0626
1491853223.6089749336,1491853223.6114079952, -0.1847,  0.0178, -0.0294,  0.0537,  0.0078,  0.0457
1491853223.6117820740,1491853223.6142721176, -0.1847,  0.0178, -0.0294,  0.0537,  0.0078,  0.0457
1491853223.6146469116,1491853223.6170740128, -0.1847,  0.0178, -0.0294,  0.0537,  0.0078,  0.0457
1491853223.6174509525,1491853223.6198821068, -0.1847,  0.0178, -0.0294,  0.0537,  0.0078,  0.0379
1491853223.6202580929,1491853223.6226840019, -0.1847,  0.0178, -0.0294,  0.0492,  0.0012,  0.0329
1491853223.6230609417,1491853223.6254270077, -0.1847,  0.0178, -0.0294,  0.0492,  0.0012,  0.0329
1491853223.6257970333,1491853223.6281070709, -0.1847, -0.0121, -0.0100,  0.0492,  0.0012,  0.0329
1491853223.6284790039,1491853223.6307749748, -0.1900, -0.0121, -0.0100,  0.0492, -0.0074,  0.0230
1491853223.6311440468,1491853223.6334450245, -0.1900, -0.0121, -0.0100,  0.0430, -0.0074,  0.0230
1491853223.6338129044,1491853223.6362810135, -0.1900, -0.0121, -0.0100,  0.0430, -0.0074,  0.0230
1491853223.6366569996,1491853223.6390829086, -0.1900, -0.0121, -0.0100,  0.0430, -0.0074,  0.0230
1491853223.6394619942,1491853223.6418890953, -0.1900, -0.0121, -0.0100,  0.0381, -0.0176,  0.0189
1491853223.6422638893,1491853223.6447000504, -0.1900, -0.0121, -0.0100,  0.0381, -0.0176,  0.0189
1491853223.6450760365,1491853223.6474990845, -0.1900, -0.0121,  0.0252,  0.0381, -0.0176,  0.0189
1491853223.6478741169,1491853223.6503040791, -0.1975,  0.0034,  0.0252,  0.0381, -0.0176,  0.0189
1491853223.6506819725,1491853223.6531119347, -0.1975,  0.0034,  0.0252,  0.0284, -0.0108,  0.0311
1491853223.6534879208,1491853223.6559300423, -0.1975,  0.0034,  0.0252,  0.0284, -0.0108,  0.0311
1491853223.6563060284,1491853223.6587328911, -0.1975,  0.0034,  0.0252,  0.0284, -0.0108,  0.0311
1491853223.6592180729,1491853223.6617848873, -0.1975,  0.0034,  0.0252,  0.0284,  0.0010,  0.0332
1491853223.6621599197,1491853223.6646230221, -0.1975,  0.0034,  0.0252,  0.0254,  0.0010,  0.0332
1491853223.6649930477,1491853223.6672930717, -0.1975,  0.0034,  0.0392,  0.0254,  0.0010,  0.0332
1491853223.6676619053,1491853223.6700921059, -0.1996,  0.0001,  0.0392,  0.0254,  0.0010,  0.0332
1491853223.6704640388,1491853223.6727690697, -0.1996,  0.0001,  0.0392,  0.0238,  0.0059,  0.0342
1491853223.6737220287,1491853223.6761419773, -0.1996,  0.0001,  0.0392,  0.0238,  0.0059,  0.0342
1491853223.6765210629,1491853223.6789491177, -0.1996,  0.0001,  0.0392,  0.0238,  0.0059,  0.0342
1491853223.6793251038,1491853223.6817460060, -0.1996,  0.0001,  0.0392,  0.0238,  0.0059,  0.0367
1491853223.6821229458,1491853223.6845600605, -0.1996,  0.0001,  0.0392,  0.0196,  0.0189,  0.0367
1491853223.6849339008,1491853223.6873610020, -0.1996,  0.0079,  0.0139,  0.0196,  0.0189,  0.0367
1491853223.6877379417,1491853223.6901650429, -0.1881,  0.0147,  0.0139,  0.0196,  0.0189,  0.0367
1491853223.6905400753,1491853223.6929678917, -0.1881,  0.0147,  0.0139,  0.0190,  0.0315,  0.0357
1491853223.6933441162,1491853223.6957840919, -0.1881,  0.0147,  0.0139,  0.0190,  0.0315,  0.0357
1491853223.6961588860,1491853223.6985790730, -0.1881,  0.0147,  0.0139,  0.0190,  0.0315,  0.0357
1491853223.6989560127,1491853223.7013869286, -0.1881,  0.0147,  0.0139,  0.0190,  0.0315,  0.0357
1491853223.7017619610,1491853223.7041759491, -0.1881,  0.0147,  0.0139,  0.0155,  0.0317,  0.0349
1491853223.7045431137,1491853223.7068378925, -0.1881,  0.0147,  0.0137,  0.0155,  0.0317,  0.0349
1491853223.7072050571,1491853223.7095119953, -0.1913,  0.0151,  0.0137,  0.0155,  0.0317,  0.0349
1491853223.7098789215,1491853223.7121760845, -0.1913,  0.0151,  0.0137,  0.0155,  0.0317,  0.0349
1491853223.7125430107,1491853223.7149899006, -0.1913,  0.0151,  0.0137,  0.0157,  0.0372,  0.0330
1491853223.7153580189,1491853223.7176640034, -0.1913,  0.0151,  0.0137,  0.0157,  0.0372,  0.0330
1491853223.7180318832,1491853223.7203319073, -0.1913,  0.0151,  0.0137,  0.0157,  0.0372,  0.0330
1491853223.7206981182,1491853223.7230029106, -0.1913,  0.0151,  0.0137,  0.0157,  0.0372,  0.0340
1491853223.7233719826,1491853223.7260529995, -0.1913,  0.0151,  0.0137,  0.0184,  0.0434,  0.0340
1491853223.7264308929,1491853223.7288589478, -0.1816,  0.0133, -0.0137,  0.0184,  0.0434,  0.0340
1491853223.7292339802,1491853223.7316589355, -0.1816,  0.0133, -0.0137,  0.0184,  0.0434,  0.0340
1491853223.7320370674,1491853223.7344739437, -0.1816,  0.0133, -0.0137,  0.0186,  0.0394,  0.0342
1491853223.7348489761,1491853223.7372789383, -0.1816,  0.0133, -0.0137,  0.0186,  0.0394,  0.0342
1491853223.7376539707,1491853223.7400751114, -0.1816,  0.0133, -0.0137,  0.0186,  0.0394,  0.0342
1491853223.7404499054,1491853223.7428760529, -0.1816,  0.0133, -0.0137,  0.0186,  0.0394,  0.0342
1491853223.7432529926,1491853223.7456099987, -0.1816,  0.0133, -0.0137,  0.0157,  0.0376,  0.0336
1491853223.7459781170,1491853223.7482750416, -0.1808,  0.0197, -0.0057,  0.0157,  0.0376,  0.0336
1491853223.7486450672,1491853223.7509429455, -0.1808,  0.0197, -0.0057,  0.0157,  0.0376,  0.0336
1491853223.7513101101,1491853223.7536149025, -0.1808,  0.0197, -0.0057,  0.0157,  0.0376,  0.0336
1491853223.7539830208,1491853223.7573719025, -0.1808,  0.0197, -0.0057,  0.0155,  0.0348,  0.0348
1491853223.7577760220,1491853223.7611000538, -0.1808,  0.0197, -0.0057,  0.0155,  0.0348,  0.0348
1491853223.7614870071,1491853223.7640759945, -0.1808,  0.0197, -0.0057,  0.0155,  0.0348,  0.0333
1491853223.7644600868,1491853223.7668850422, -0.1808,  0.0249, -0.0106,  0.0328,  0.0346,  0.0333
1491853223.7672619820,1491853223.7696869373, -0.1790,  0.0249, -0.0106,  0.0328,  0.0346,  0.0333
1491853223.7700641155,1491853223.7724881172, -0.1790,  0.0249, -0.0106,  0.0328,  0.0346,  0.0333
1491853223.7728619576,1491853223.7753050327, -0.1790,  0.0249, -0.0106,  0.0451,  0.0316,  0.0316
1491853223.7758250237,1491853223.7782530785, -0.1790,  0.0249, -0.0106,  0.0451,  0.0316,  0.0316
1491853223.7786290646,1491853223.7811770439, -0.1790,  0.0249, -0.0106,  0.0451,  0.0316,  0.0316
1491853223.7815520763,1491853223.7839701176, -0.1790,  0.0249, -0.0106,  0.0451,  0.0316,  0.0316
1491853223.7856030464,1491853223.7880349159, -0.1952,  0.0175, -0.0108,  0.0580,  0.0281,  0.0344
1491853223.7884120941,1491853223.7908399105, -0.1952,  0.0175, -0.0108,  0.0580,  0.0281,  0.0344
1491853223.7912149429,1491853223.7936398983, -0.1952,  0.0175, -0.0108,  0.0580,  0.0281,  0.0344
1491853223.7940580845,1491853223.7966589928, -0.1952,  0.0175, -0.0108,  0.0650,  0.0341,  0.0390
1491853223.7970359325,1491853223.7994658947, -0.1952,  0.0175, -0.0108,  0.0650,  0.0341,  0.0390
1491853223.7998409271,1491853223.8022658825, -0.1952,  0.0175, -0.0108,  0.0650,  0.0341,  0.0390
1491853223.8026421070,1491853223.8050770760, -0.1952,  0.0175, -0.0108,  0.0650,  0.0341,  0.0468
1491853223.8054540157,1491853223.8078811169, -0.1894,  0.0088,  0.0361,  0.0539,  0.0635,  0.0457
1491853223.8082580566,1491853223.8106729984, -0.1894,  0.0088,  0.0361,  0.0539,  0.0635,  0.0457
1491853223.8110480309,1491853223.8134710789, -0.1894,  0.0088,  0.0361,  0.0539,  0.0635,  0.0457
1491853223.8138480186,1491853223.8161671162, -0.1894,  0.0088,  0.0361,  0.0852,  0.0429,  0.0500
1491853223.8165349960,1491853223.8188340664, -0.1894,  0.0088,  0.0361,  0.0818,  0.0429,  0.0500
1491853223.8192040920,1491853223.8215019703, -0.1894,  0.0088,  0.0361,  0.0818,  0.0429,  0.0500
1491853223.8218710423,1491853223.8241829872, -0.1894,  0.0088,  0.0361,  0.0818,  0.0429,  0.0500
1491853223.8245589733,1491853223.8269839287, -0.2145,  0.0059,  0.0141,  0.0790,  0.0569,  0.0767
1491853223.8273611069,1491853223.8297889233, -0.2145,  0.0059,  0.0141,  0.0790,  0.0569,  0.0767
1491853223.8301639557,1491853223.8325870037, -0.2145,  0.0059,  0.0141,  0.0790,  0.0569,  0.0767
1491853223.8329639435,1491853223.8353250027, -0.2145,  0.0059,  0.0141,  0.0790,  0.0569,  0.0767
1491853223.8356940746,1491853223.8379919529, -0.2145,  0.0059,  0.0141,  0.0846,  0.0581,  0.0993
1491853223.8383610249,1491853223.8406651020, -0.2145,  0.0059,  0.0141,  0.0846,  0.0581,  0.0993
1491853223.8410329819,1491853223.8433370590, -0.2145,  0.0059,  0.0141,  0.0846,  0.0581,  0.0993
1491853223.8437070847,1491853223.8461499214, -0.2145, -0.0126, -0.0106,  0.0846,  0.0581,  0.1227
1491853223.8465199471,1491853223.8488190174, -0.2574, -0.0126, -0.0106,  0.0829,  0.0662,  0.1245
1491853223.8491868973,1491853223.8514850140, -0.2574, -0.0126, -0.0106,  0.0829,  0.0662,  0.1245
1491853223.8518528938,1491853223.8542490005, -0.2574, -0.0126, -0.0106,  0.0829,  0.0662,  0.1245
1491853223.8546299934,1491853223.8570690155, -0.2574, -0.0126, -0.0106,  0.0829,  0.0662,  0.1526
1491853223.8574469090,1491853223.8598690033, -0.2574, -0.0126, -0.0106,  0.0782,  0.0702,  0.1526
1491853223.8602449894,1491853223.8626699448, -0.2574, -0.0126, -0.0106,  0.0782,  0.0702,  0.1526
1491853223.8630440235,1491853223.8654088974, -0.2574, -0.0126, -0.0662,  0.0782,  0.0702,  0.1526
1491853223.8657789230,1491853223.8680710793, -0.2814, -0.0392, -0.0662,  0.0622,  0.0665,  0.1814
1491853223.8684389591,1491853223.8707330227, -0.2814, -0.0392, -0.0662,  0.0622,  0.0665,  0.1814
1491853223.8710999489,1491853223.8733990192, -0.2814, -0.0392, -0.0662,  0.0622,  0.0665,  0.1814
1491853223.8737659454,1491853223.8761789799, -0.2814, -0.0392, -0.0662,  0.0622,  0.0665,  0.1814
1491853223.8765449524,1491853223.8788421154, -0.2814, -0.0392, -0.0662,  0.0341,  0.0625,  0.2157
1491853223.8792119026,1491853223.8815081120, -0.2814, -0.0392, -0.0662,  0.0341,  0.0625,  0.2157
1491853223.8818778992,1491853223.8841888905, -0.2814, -0.0392, -0.0662,  0.0341,  0.0625,  0.2157
1491853223.8845629692,1491853223.8869919777, -0.3103, -0.0404, -0.0754,  0.0341,  0.0625,  0.2157
1491853223.8873670101,1491853223.8897919655, -0.3103, -0.0404, -0.0754,  0.0107,  0.0607,  0.2522
1491853223.8901679516,1491853223.8925869465, -0.3103, -0.0404, -0.0754,  0.0107,  0.0607,  0.2522
1491853223.8930890560,1491853223.8955268860, -0.3103, -0.0404, -0.0754,  0.0107,  0.0607,  0.2522
1491853223.8959009647,1491853223.8983299732, -0.3103, -0.0404, -0.0754,  0.0107,  0.0701,  0.2822
1491853223.8987059593,1491853223.9011330605, -0.3103, -0.0404, -0.0754,  0.0140,  0.0701,  0.2822
1491853223.9015109539,1491853223.9039330482, -0.3103, -0.0404, -0.0754,  0.0140,  0.0701,  0.2822
1491853223.9043130875,1491853223.9067339897, -0.3033, -0.0887, -0.0372,  0.0140,  0.0701,  0.2822
1491853223.9071099758,1491853223.9095349312, -0.3033, -0.0887, -0.0372,  0.0161,  0.0768,  0.3101
1491853223.9099121094,1491853223.9124200344, -0.3033, -0.0887, -0.0372,  0.0161,  0.0768,  0.3101
1491853223.9127979279,1491853223.9152200222, -0.3033, -0.0887, -0.0372,  0.0161,  0.0768,  0.3101
1491853223.9155890942,1491853223.9178950787, -0.3033, -0.0887, -0.0372,  0.0161,  0.0768,  0.3101
1491853223.9182651043,1491853223.9205698967, -0.3033, -0.0887, -0.0372,  0.0108,  0.0760,  0.3562
1491853223.9209389687,1491853223.9232420921, -0.3033, -0.0887, -0.0372,  0.0108,  0.0760,  0.3562
1491853223.9236109257,1491853223.9259200096, -0.2795, -0.1535,  0.0136,  0.0108,  0.0760,  0.3562
1491853223.9262900352,1491853223.9285900593, -0.2795, -0.1535,  0.0136,  0.0108,  0.0760,  0.3952
1491853223.9289579391,1491853223.9312601089, -0.2795, -0.1535,  0.0136,  0.0341,  0.0953,  0.3945
1491853223.9316279888,1491853223.9339270592, -0.2795, -0.1535,  0.0136,  0.0341,  0.0953,  0.3945
1491853223.9343030453,1491853223.9367320538, -0.2795, -0.1535,  0.0136,  0.0341,  0.0953,  0.3945
1491853223.9371080399,1491853223.9395339489, -0.2795, -0.1535,  0.0136,  0.0341,  0.0581,  0.4597
1491853223.9399120808,1491853223.9423320293, -0.2795, -0.1535,  0.0136,  0.0031,  0.0581,  0.4597
1491853223.9427070618,1491853223.9450969696, -0.2795, -0.1770,  0.0656,  0.0031,  0.0581,  0.4597
1491853223.9454679489,1491853223.9477689266, -0.3140, -0.1722,  0.0656,  0.0031,  0.0581,  0.4597
1491853223.9481379986,1491853223.9504349232, -0.3140, -0.1722,  0.0656,  0.0463,  0.0470,  0.5272
1491853223.9508039951,1491853223.9531049728, -0.3140, -0.1722,  0.0656,  0.0463,  0.0470,  0.5272
1491853223.9534740448,1491853223.9559140205, -0.3140, -0.1722,  0.0656,  0.0463,  0.0470,  0.5272
1491853223.9562830925,1491853223.9585869312, -0.3140, -0.1722,  0.0656,  0.0463,  0.0470,  0.5272
1491853223.9589560032,1491853223.9612519741, -0.3140, -0.1722,  0.0656,  0.1155, -0.0013,  0.5989
1491853223.9616229534,1491853223.9639220238, -0.3140, -0.1722,  0.0656,  0.1155, -0.0013,  0.5989
1491853223.9642899036,1491853223.9665958881, -0.3307, -0.3229, -0.0267,  0.1155, -0.0013,  0.5989
1491853223.9669690132,1491853223.9692680836, -0.3307, -0.3229, -0.0267,  0.1155, -0.0013,  0.5989
1491853223.9696400166,1491853223.9719369411, -0.3307, -0.3229, -0.0267,  0.2034, -0.0791,  0.6826
1491853223.9723050594,1491853223.9747240543, -0.3307, -0.3229, -0.0267,  0.2034, -0.0791,  0.6826
1491853223.9751000404,1491853223.9775109291, -0.3307, -0.3229, -0.0267,  0.2034, -0.0791,  0.6826
1491853223.9778859615,1491853223.9803040028, -0.3307, -0.3229, -0.0267,  0.2034, -0.0791,  0.7997
1491853223.9806780815,1491853223.9830861092, -0.3307, -0.3229, -0.0267,  0.1161, -0.0130,  0.7997
1491853223.9834620953,1491853223.9858798981, -0.6744, -0.0578,  0.1133,  0.1161, -0.0130,  0.7997
1491853223.9862558842,1491853223.9886679649, -0.6744, -0.0578,  0.1133,  0.1161, -0.0130,  0.7997
1491853223.9890449047,1491853223.9914550781, -0.6744, -0.0578,  0.1133,  0.0525,  0.0513,  0.8911
1491853223.9919800758,1491853223.9942989349, -0.6744, -0.0578,  0.1133,  0.0525,  0.0513,  0.8911
1491853223.9946689606,1491853223.9969680309, -0.6744, -0.0578,  0.1133,  0.0525,  0.0513,  0.8911
1491853223.9973359108,1491853223.9996290207, -0.6744, -0.0578,  0.1133,  0.0525,  0.0513,  0.8911
1491853223.9999980927,1491853224.0022931099, -0.6744, -0.0578,  0.1133, -0.0868,  0.2250,  0.8546
1491853224.0026628971,1491853224.0052011013, -0.3994,  0.2032,  0.0027, -0.0868,  0.2250,  0.8546
1491853224.0055789948,1491853224.0079720020, -0.3994,  0.2032,  0.0027, -0.0868,  0.2250,  0.8546
1491853224.0084660053,1491853224.0108458996, -0.3994,  0.2032,  0.0027, -0.0868,  0.2250,  0.8000
1491853224.0112209320,1491853224.0136139393, -0.3994,  0.2032,  0.0027, -0.0483,  0.0651,  0.7995
1491853224.0146679878,1491853224.0169761181, -0.3994,  0.2032,  0.0027, -0.0483,  0.0651,  0.7995
1491853224.0173470974,1491853224.0196499825, -0.3994,  0.2032,  0.0027, -0.0483,  0.0651,  0.7995
1491853224.0200181007,1491853224.0223169327, -0.3994,  0.2032,  0.0027,  0.0131,  0.0569,  0.7268
1491853224.0226869583,1491853224.0250821114, -0.3481, -0.0274,  0.0988,  0.0131,  0.0569,  0.7268
1491853224.0254590511,1491853224.0278799534, -0.3481, -0.0274,  0.0988,  0.0131,  0.0569,  0.7268
1491853224.0282568932,1491853224.0306770802, -0.3481, -0.0274,  0.0988,  0.0131,  0.0569,  0.7268
1491853224.0310530663,1491853224.0334780216, -0.3481, -0.0274,  0.0988,  0.0154,  0.0480,  0.6187
1491853224.0338559151,1491853224.0362880230, -0.3481, -0.0274,  0.0988,  0.0154,  0.0480,  0.6187
1491853224.0366630554,1491853224.0390889645, -0.3481, -0.0274,  0.0988,  0.0154,  0.0480,  0.6187
1491853224.0394649506,1491853224.0418870449, -0.3481, -0.0274,  0.0988,  0.0154,  0.0480,  0.4910
1491853224.0422630310,1491853224.0446650982, -0.1528,  0.0935,  0.0304,  0.1575,  0.0488,  0.4910
1491853224.0450348854,1491853224.0473361015, -0.1539,  0.0935,  0.0304,  0.1575,  0.0488,  0.4910
1491853224.0477039814,1491853224.0500030518, -0.1539,  0.0935,  0.0304,  0.1575,  0.0488,  0.4910
1491853224.0503709316,1491853224.0526680946, -0.1539,  0.0935,  0.0304,  0.1575,  0.0602,  0.2832
1491853224.0530350208,1491853224.0553419590, -0.1539,  0.0935,  0.0304,  0.2400,  0.0602,  0.2832
1491853224.0557088852,1491853224.0580110550, -0.1539,  0.0935,  0.0304,  0.2400,  0.0602,  0.2832
1491853224.0583798885,1491853224.0606749058, -0.1539,  0.0935,  0.0304,  0.2400,  0.0602,  0.2832
1491853224.0610420704,1491853224.0634489059, -0.1539,  0.0935,  0.0461,  0.1914,  0.0502,  0.0412
1491853224.0638170242,1491853224.0662839413, -0.2415, -0.2092,  0.0431,  0.1914,  0.0502,  0.0412
1491853224.0666520596,1491853224.0689499378, -0.2415, -0.2092,  0.0431,  0.1914,  0.0502,  0.0412
1491853224.0693180561,1491853224.0716199875, -0.2415, -0.2092,  0.0431,  0.1914,  0.0502,  0.0412
1491853224.0719881058,1491853224.0744099617, -0.2415, -0.2092,  0.0431, -0.0223,  0.0937, -0.1114
1491853224.0747880936,1491853224.0771811008, -0.2415, -0.2092,  0.0431, -0.0223,  0.0937, -0.1114
1491853224.0775570869,1491853224.0799469948, -0.2415, -0.2092,  0.0431, -0.0223,  0.0937, -0.1114
1491853224.0803229809,1491853224.0827550888, -0.2415, -0.2092,  0.0431, -0.0223,  0.0937, -0.1114
1491853224.0831329823,1491853224.0855689049, -0.2281, -0.1656,  0.0287, -0.0876,  0.1390, -0.1842
1491853224.0859420300,1491853224.0883700848, -0.2281, -0.1656,  0.0287, -0.0876,  0.1390, -0.1842
1491853224.0887451172,1491853224.0911700726, -0.2281, -0.1656,  0.0287, -0.0876,  0.1390, -0.1842
1491853224.0915460587,1491853224.0939741135, -0.2281, -0.1656,  0.0287, -0.1345,  0.1468, -0.2176
1491853224.0944199562,1491853224.0968439579, -0.2281, -0.1656,  0.0287, -0.1330,  0.1468, -0.2176
1491853224.0972158909,1491853224.0996429920, -0.2281, -0.1656,  0.0287, -0.1330,  0.1468, -0.2176
1491853224.1000199318,1491853224.1024498940, -0.2281, -0.1656,  0.0287, -0.1330,  0.1468, -0.2176
1491853224.1028280258,1491853224.1052958965, -0.0957, -0.0409,  0.0182, -0.1451,  0.1404, -0.2662
1491853224.1056709290,1491853224.1080989838, -0.0957, -0.0409,  0.0182, -0.1451,  0.1404, -0.2662
1491853224.1084759235,1491853224.1108961105, -0.0957, -0.0409,  0.0182, -0.1451,  0.1404, -0.2662
1491853224.1112699509,1491853224.1136939526, -0.0957, -0.0409,  0.0182, -0.1451,  0.1404, -0.3521
1491853224.1140799522,1491853224.1163840294, -0.0957, -0.0409,  0.0182, -0.1169,  0.1244, -0.3571
1491853224.1167531013,1491853224.1190528870, -0.0957, -0.0409,  0.0182, -0.1169,  0.1244, -0.3571
1491853224.1194229126,1491853224.1217238903, -0.0957, -0.0409,  0.0182, -0.1169,  0.1244, -0.3571
1491853224.1220939159,1491853224.1245689392, -0.0472, -0.0238,  0.0517, -0.1169,  0.1244, -0.4551
1491853224.1250550747,1491853224.1273570061, -0.0472, -0.0238,  0.0517, -0.0802,  0.1111, -0.4551
1491853224.1277260780,1491853224.1300890446, -0.0472, -0.0238,  0.0517, -0.0802,  0.1111, -0.4551
1491853224.1305410862,1491853224.1328380108, -0.0472, -0.0238,  0.0517, -0.0802,  0.1111, -0.4551
1491853224.1332058907,1491853224.1355979443, -0.0472, -0.0238,  0.0517, -0.0401,  0.0924, -0.5314
1491853224.1359739304,1491853224.1384000778, -0.0472, -0.0238,  0.0517, -0.0401,  0.0924, -0.5314
1491853224.1387770176,1491853224.1412079334, -0.0472, -0.0238,  0.0517, -0.0401,  0.0924, -0.5314
1491853224.1415829659,1491853224.1440079212, -0.0746, -0.0467,  0.0387, -0.0401,  0.0924, -0.5314
1491853224.1444299221,1491853224.1468510628, -0.0746, -0.0467,  0.0387,  0.0062,  0.0620, -0.5761
1491853224.1472289562,1491853224.1496510506, -0.0746, -0.0467,  0.0387,  0.0062,  0.0620, -0.5761
1491853224.1500279903,1491853224.1524500847, -0.0746, -0.0467,  0.0387,  0.0062,  0.0620, -0.5761
1491853224.1528251171,1491853224.1552929878, -0.0746, -0.0467,  0.0387,  0.0062,  0.0620, -0.6066
1491853224.1556689739,1491853224.1580929756, -0.0746, -0.0467,  0.0387,  0.0535,  0.0315, -0.6066
1491853224.1584699154,1491853224.1608929634, -0.0746, -0.0467,  0.0387,  0.0535,  0.0315, -0.6066
1491853224.1612679958,1491853224.1636939049, -0.0862, -0.0643,  0.0109,  0.0535,  0.0315, -0.6066
1491853224.1640779972,1491853224.1663739681, -0.0862, -0.0643,  0.0109,  0.0767,  0.0030, -0.6246
1491853224.1667439938,1491853224.1690430641, -0.0862, -0.0643,  0.0109,  0.0767,  0.0030, -0.6246
1491853224.1694130898,1491853224.1717131138, -0.0862, -0.0643,  0.0109,  0.0767,  0.0030, -0.6246
1491853224.1720819473,1491853224.1743979454, -0.0862, -0.0643,  0.0109,  0.0767,  0.0030, -0.6246
1491853224.1747660637,1491853224.1770689487, -0.0862, -0.0643,  0.0109,  0.0814, -0.0331, -0.6396
1491853224.1774380207,1491853224.1797389984, -0.0862, -0.0643,  0.0109,  0.0814, -0.0331, -0.6396
1491853224.1801080704,1491853224.1824080944, -0.0862, -0.0643,  0.0064,  0.0814, -0.0331, -0.6396
1491853224.1827759743,1491853224.1852340698, -0.1160, -0.0705,  0.0064,  0.0814, -0.0331, -0.6396
1491853224.1856129169,1491853224.1880259514, -0.1160, -0.0705,  0.0064,  0.0734, -0.0649, -0.6536
1491853224.1884019375,1491853224.1908109188, -0.1160, -0.0705,  0.0064,  0.0734, -0.0649, -0.6536
1491853224.1911859512,1491853224.1935958862, -0.1160, -0.0705,  0.0064,  0.0734, -0.0649, -0.6536
1491853224.1939699650,1491853224.1963880062, -0.1160, -0.0705,  0.0064,  0.0734, -0.0649, -0.6691
1491853224.1967670918,1491853224.1991760731, -0.1160, -0.0705,  0.0064,  0.0574, -0.0882, -0.6691
1491853224.1995539665,1491853224.2019610405, -0.1160, -0.0705,  0.0064,  0.0574, -0.0882, -0.6691
1491853224.2023360729,1491853224.2047550678, -0.1450, -0.0526,  0.0089,  0.0574, -0.0882, -0.6691
1491853224.2051320076,1491853224.2075459957, -0.1450, -0.0526,  0.0089,  0.0349, -0.1056, -0.6887
1491853224.2079219818,1491853224.2103269100, -0.1450, -0.0526,  0.0089,  0.0349, -0.1056, -0.6887
1491853224.2107028961,1491853224.2131071091, -0.1450, -0.0526,  0.0089,  0.0349, -0.1056, -0.6887
1491853224.2134819031,1491853224.2159039974, -0.1450, -0.0526,  0.0089,  0.0349, -0.1056, -0.6887
1491853224.2162809372,1491853224.2186849117, -0.1450, -0.0526,  0.0089,  0.0202, -0.1266, -0.7005
1491853224.2190608978,1491853224.2214670181, -0.1450, -0.0526,  0.0089,  0.0202, -0.1266, -0.7005
1491853224.2218410969,1491853224.2242619991, -0.1802, -0.0387,  0.0056,  0.0202, -0.1266, -0.7005
1491853224.2246379852,1491853224.2270510197, -0.1802, -0.0387,  0.0056,  0.0202, -0.1266, -0.7016
1491853224.2274289131,1491853224.2298378944, -0.1802, -0.0387,  0.0056,  0.0128, -0.1492, -0.7016
1491853224.2302119732,1491853224.2326200008, -0.1802, -0.0387,  0.0056,  0.0128, -0.1492, -0.7016
1491853224.2329950333,1491853224.2354240417, -0.1802, -0.0387,  0.0056,  0.0128, -0.1492, -0.7016
1491853224.2358000278,1491853224.2382230759, -0.1802, -0.0387,  0.0056,  0.0084, -0.1739, -0.6941
1491853224.2385990620,1491853224.2410149574, -0.1802, -0.0387,  0.0056,  0.0084, -0.1739, -0.6941
1491853224.2415020466,1491853224.2439260483, -0.2112, -0.0261, -0.0199,  0.0084, -0.1739, -0.6941
1491853224.2443070412,1491853224.2467339039, -0.2112, -0.0261, -0.0199,  0.0084, -0.1739, -0.6941
1491853224.2471129894,1491853224.2495288849, -0.2112, -0.0261, -0.0199,  0.0045, -0.1942, -0.6848
1491853224.2499051094,1491853224.2523329258, -0.2112, -0.0261, -0.0199,  0.0045, -0.1942, -0.6848
1491853224.2527101040,1491853224.2551460266, -0.2112, -0.0261, -0.0199,  0.0045, -0.1942, -0.6848
1491853224.2555229664,1491853224.2579450607, -0.2112, -0.0261, -0.0199,  0.0045, -0.1942, -0.6841
1491853224.2583200932,1491853224.2607440948, -0.2112, -0.0261, -0.0199,  0.0081, -0.2060, -0.6841
1491853224.2611200809,1491853224.2635390759, -0.2466, -0.0336, -0.0319,  0.0081, -0.2060, -0.6841
1491853224.2639160156,1491853224.2663490772, -0.2466, -0.0336, -0.0319,  0.0081, -0.2060, -0.6841
1491853224.2667260170,1491853224.2691550255, -0.2466, -0.0336, -0.0319,  0.0056, -0.2165, -0.6891
1491853224.2695310116,1491853224.2719540596, -0.2466, -0.0336, -0.0319,  0.0056, -0.2165, -0.6891
1491853224.2723319530,1491853224.2747399807, -0.2466, -0.0336, -0.0319,  0.0056, -0.2165, -0.6891
1491853224.2751100063,1491853224.2774069309, -0.2466, -0.0336, -0.0319,  0.0056, -0.2165, -0.6891
1491853224.2777769566,1491853224.2800750732, -0.2466, -0.0336, -0.0319,  0.0113, -0.2183, -0.7014
1491853224.2804429531,1491853224.2827448845, -0.3064, -0.0332, -0.0302,  0.0113, -0.2183, -0.7014
1491853224.2831130028,1491853224.2855210304, -0.3064, -0.0332, -0.0302,  0.0113, -0.2183, -0.7014
1491853224.2858951092,1491853224.2883150578, -0.3064, -0.0332, -0.0302,  0.0113, -0.2183, -0.7014
1491853224.2886919975,1491853224.2911179066, -0.3064, -0.0332, -0.0302,  0.0172, -0.2208, -0.7158
1491853224.2914929390,1491853224.2939178944, -0.3064, -0.0332, -0.0302,  0.0172, -0.2208, -0.7158
1491853224.2942950726,1491853224.2967259884, -0.3064, -0.0332, -0.0302,  0.0172, -0.2208, -0.7158
1491853224.2971010208,1491853224.2995269299, -0.3064, -0.0332, -0.0302,  0.0172, -0.2208, -0.7274
1491853224.2999050617,1491853224.3023300171, -0.4028, -0.0046, -0.0663,  0.0259, -0.2205, -0.7274
1491853224.3027069569,1491853224.3051500320, -0.4028, -0.0046, -0.0663,  0.0259, -0.2205, -0.7274
1491853224.3055279255,1491853224.3079481125, -0.4028, -0.0046, -0.0663,  0.0259, -0.2205, -0.7274
1491853224.3083250523,1491853224.3107490540, -0.4028, -0.0046, -0.0663,  0.0263, -0.2168, -0.7296
1491853224.3111240864,1491853224.3135509491, -0.4028, -0.0046, -0.0663,  0.0263, -0.2168, -0.7296
1491853224.3139259815,1491853224.3163640499, -0.4028, -0.0046, -0.0663,  0.0263, -0.2168, -0.7296
1491853224.3167409897,1491853224.3191719055, -0.4028, -0.0046, -0.0663,  0.0263, -0.2168, -0.7296
1491853224.3195478916,1491853224.3219749928, -0.5278,  0.0785, -0.1042,  0.0161, -0.2049, -0.7226
1491853224.3223519325,1491853224.3247539997, -0.5267,  0.0785, -0.1042,  0.0161, -0.2049, -0.7226
1491853224.3251230717,1491853224.3274250031, -0.5267,  0.0785, -0.1042,  0.0161, -0.2049, -0.7226
1491853224.3277940750,1491853224.3300890923, -0.5267,  0.0785, -0.1042,  0.0161, -0.2049, -0.7014
1491853224.3304591179,1491853224.3327579498, -0.5267,  0.0785, -0.1042, -0.0003, -0.1831, -0.7014
1491853224.3331279755,1491853224.3355340958, -0.5267,  0.0785, -0.1042, -0.0003, -0.1831, -0.7014
1491853224.3359100819,1491853224.3383340836, -0.5267,  0.0785, -0.1042, -0.0003, -0.1831, -0.7014
1491853224.3387110233,1491853224.3411331177, -0.5267,  0.0785, -0.0613, -0.0306, -0.1549, -0.6674
1491853224.3415079117,1491853224.3439331055, -0.5473,  0.1565, -0.0613, -0.0306, -0.1549, -0.6674
1491853224.3443100452,1491853224.3467340469, -0.5473,  0.1565, -0.0613, -0.0306, -0.1549, -0.6674
1491853224.3471090794,1491853224.3495450020, -0.5473,  0.1565, -0.0613, -0.0306, -0.1549, -0.6674
1491853224.3499310017,1491853224.3537549973, -0.5473,  0.1565, -0.0613, -0.0731, -0.1153, -0.6194
1491853224.3543639183,1491853224.3566761017, -0.5473,  0.1565, -0.0613, -0.0731, -0.1153, -0.6194
1491853224.3571779728,1491853224.3594770432, -0.5473,  0.1565, -0.0613, -0.0731, -0.1153, -0.6194
1491853224.3598480225,1491853224.3622200489, -0.4425,  0.3498, -0.0469, -0.0944, -0.0711, -0.5560
1491853224.3625919819,1491853224.3649010658, -0.4425,  0.3498, -0.0469, -0.0944, -0.0711, -0.5560
1491853224.3652698994,1491853224.3675649166, -0.4425,  0.3498, -0.0469, -0.0944, -0.0711, -0.5560
1491853224.3679320812,1491853224.3702840805, -0.4425,  0.3498, -0.0469, -0.0944, -0.0711, -0.5560
1491853224.3706650734,1491853224.3729739189, -0.4425,  0.3498, -0.0469, -0.0807, -0.0507, -0.4803
1491853224.3733448982,1491853224.3756649494, -0.4425,  0.3498, -0.0469, -0.0807, -0.0507, -0.4803
1491853224.3760368824,1491853224.3783340454, -0.4425,  0.3498, -0.0469, -0.0807, -0.0507, -0.4803
1491853224.3787050247,1491853224.3811299801, -0.4425,  0.5479, -0.0499, -0.0807, -0.0507, -0.4803
1491853224.3814980984,1491853224.3838040829, -0.3362,  0.5479, -0.0499, -0.0519, -0.0505, -0.3935
1491853224.3841800690,1491853224.3865680695, -0.3362,  0.5479, -0.0499, -0.0519, -0.0505, -0.3935
1491853224.3869409561,1491853224.3893229961, -0.3362,  0.5479, -0.0499, -0.0519, -0.0505, -0.3935
1491853224.3896980286,1491853224.3921411037, -0.3362,  0.5479, -0.0499, -0.0519, -0.0427, -0.2769
1491853224.3925180435,1491853224.3949570656, -0.3362,  0.5479, -0.0499, -0.0133, -0.0458, -0.2769
1491853224.3953340054,1491853224.3977611065, -0.3362,  0.5479, -0.0499, -0.0133, -0.0458, -0.2769
1491853224.3981370926,1491853224.4005610943, -0.3362,  0.5479, -0.0828, -0.0133, -0.0458, -0.2769
1491853224.4009389877,1491853224.4033660889, -0.2882,  0.6361, -0.0828,  0.0243, -0.0273, -0.1330
1491853224.4037420750,1491853224.4061748981, -0.2882,  0.6361, -0.0828,  0.0243, -0.0273, -0.1330
1491853224.4065508842,1491853224.4089820385, -0.2882,  0.6361, -0.0828,  0.0243, -0.0273, -0.1330
1491853224.4093589783,1491853224.4117879868, -0.2882,  0.6361, -0.0828,  0.0243, -0.0273, -0.1330
1491853224.4121639729,1491853224.4145860672, -0.2882,  0.6361, -0.0828,  0.0468, -0.0045,  0.0018
1491853224.4149560928,1491853224.4172649384, -0.2882,  0.6361, -0.0828,  0.0468, -0.0045,  0.0018
1491853224.4176359177,1491853224.4199359417, -0.2882,  0.6361, -0.0828,  0.0468, -0.0045,  0.0018
1491853224.4203050137,1491853224.4226028919, -0.3094,  0.5654, -0.1061,  0.0468, -0.0045,  0.1207
1491853224.4229750633,1491853224.4252810478, -0.3094,  0.5654, -0.1061,  0.0459,  0.0226,  0.1207
1491853224.4256529808,1491853224.4279539585, -0.3094,  0.5654, -0.1061,  0.0459,  0.0226,  0.1207
1491853224.4283239841,1491853224.4306259155, -0.3094,  0.5654, -0.1061,  0.0459,  0.0226,  0.1207
1491853224.4309949875,1491853224.4332909584, -0.3094,  0.5654, -0.1061,  0.0459,  0.0358,  0.2532
1491853224.4336600304,1491853224.4361169338, -0.3094,  0.5654, -0.1061,  0.0833,  0.0358,  0.2532
1491853224.4364950657,1491853224.4389240742, -0.3094,  0.5654, -0.1061,  0.0833,  0.0358,  0.2532
1491853224.4393000603,1491853224.4417250156, -0.2456,  0.1317,  0.0228,  0.0833,  0.0358,  0.2532
1491853224.4421010017,1491853224.4445350170, -0.2456,  0.1317,  0.0228,  0.1050,  0.1244,  0.4821
1491853224.4449119568,1491853224.4473431110, -0.2456,  0.1317,  0.0228,  0.1050,  0.1244,  0.4821
1491853224.4477200508,1491853224.4501390457, -0.2456,  0.1317,  0.0228,  0.1050,  0.1244,  0.4821
1491853224.4505159855,1491853224.4529519081, -0.2456,  0.1317,  0.0228,  0.1050,  0.1244,  0.4821
1491853224.4533278942,1491853224.4557631016, -0.2456,  0.1317,  0.0228,  0.0151,  0.2145,  0.2762
1491853224.4561400414,1491853224.4585630894, -0.2456,  0.1317,  0.0228,  0.0151,  0.2145,  0.2762
1491853224.4589378834,1491853224.4613640308, -0.4293, -0.7074,  0.3995,  0.0151,  0.2145,  0.2762
1491853224.4617390633,1491853224.4642069340, -0.4293, -0.7074,  0.3995,  0.0151, -0.0746,  0.6952
1491853224.4645769596,1491853224.4668769836, -0.4293, -0.7074,  0.3995, -0.1980, -0.0741,  0.6952
1491853224.4672460556,1491853224.4695510864, -0.4293, -0.7074,  0.3995, -0.1980, -0.0741,  0.6952
1491853224.4699211121,1491853224.4722199440, -0.4293, -0.7074,  0.3995, -0.1980, -0.0741,  0.6952
1491853224.4727048874,1491853224.4750649929, -0.4293, -0.7074,  0.3995, -0.3734,  0.0797,  0.9638
1491853224.4754340649,1491853224.4777300358, -0.4293, -0.7074,  0.3995, -0.3734,  0.0797,  0.9638
1491853224.4780979156,1491853224.4803979397, -0.0856,  0.8634, -0.2491, -0.3734,  0.0797,  0.9638
1491853224.4807670116,1491853224.4830670357, -0.0848,  0.8634, -0.2491, -0.3734,  0.0797,  0.9638
1491853224.4834380150,1491853224.4858789444, -0.0848,  0.8634, -0.2491, -0.1009,  0.2018,  0.7689
1491853224.4862549305,1491853224.4886820316, -0.0848,  0.8634, -0.2491, -0.1009,  0.2018,  0.7689
1491853224.4890589714,1491853224.4914898872, -0.0848,  0.8634, -0.2491, -0.1009,  0.2018,  0.7689
1491853224.4918661118,1491853224.4942939281, -0.0848,  0.8634, -0.2491, -0.1009,  0.2018,  0.7689
1491853224.4946689606,1491853224.4970960617, -0.0848,  0.8634, -0.2491, -0.0618, -0.1040,  0.3080
1491853224.4974710941,1491853224.4998960495, -0.0848, -0.0585,  0.0016, -0.0618, -0.1040,  0.3080
1491853224.5002720356,1491853224.5027000904, -0.2939, -0.0575,  0.0016, -0.0618, -0.1040,  0.3080
1491853224.5030798912,1491853224.5055160522, -0.2939, -0.0575,  0.0016,  0.0085, -0.0544,  0.3013
1491853224.5058948994,1491853224.5083220005, -0.2939, -0.0575,  0.0016,  0.0117, -0.0544,  0.3013
1491853224.5086998940,1491853224.5111229420, -0.2939, -0.0575,  0.0016,  0.0117, -0.0544,  0.3013
1491853224.5115020275,1491853224.5139250755, -0.2939, -0.0575,  0.0016,  0.0117, -0.0544,  0.3013
1491853224.5143060684,1491853224.5166089535, -0.2939, -0.0575,  0.0016,  0.0430,  0.0126,  0.3780
1491853224.5169789791,1491853224.5192809105, -0.2939, -0.0575,  0.0480,  0.0430,  0.0126,  0.3780
1491853224.5196490288,1491853224.5219500065, -0.1718,  0.0963,  0.0480,  0.0430,  0.0126,  0.3780
1491853224.5223190784,1491853224.5246930122, -0.1718,  0.0963,  0.0480,  0.0430,  0.0126,  0.3780
1491853224.5250689983,1491853224.5274860859, -0.1718,  0.0963,  0.0480, -0.0001, -0.0271,  0.3064
1491853224.5278620720,1491853224.5302729607, -0.1718,  0.0963,  0.0480, -0.0001, -0.0271,  0.3064
1491853224.5306489468,1491853224.5330619812, -0.1718,  0.0963,  0.0480, -0.0001, -0.0271,  0.3064
1491853224.5334370136,1491853224.5358679295, -0.1718,  0.0963,  0.0480, -0.0001, -0.0271,  0.2467
1491853224.5362451077,1491853224.5386519432, -0.1718,  0.0963,  0.0480,  0.0017, -0.0143,  0.2467
1491853224.5390300751,1491853224.5414369106, -0.1997,  0.0858, -0.0164,  0.0017, -0.0143,  0.2467
1491853224.5418140888,1491853224.5442650318, -0.1997,  0.0858, -0.0164,  0.0017, -0.0143,  0.2467
1491853224.5446419716,1491853224.5470519066, -0.1997,  0.0858, -0.0164,  0.0365,  0.0073,  0.2043
1491853224.5474300385,1491853224.5498409271, -0.1997,  0.0858, -0.0164,  0.0365,  0.0073,  0.2043
1491853224.5502169132,1491853224.5526309013, -0.1997,  0.0858, -0.0164,  0.0365,  0.0073,  0.2043
1491853224.5530068874,1491853224.5554490089, -0.1997,  0.0858, -0.0164,  0.0365,  0.0073,  0.2043
1491853224.5558240414,1491853224.5582189560, -0.1997,  0.0858, -0.0164,  0.0179,  0.0021,  0.1566
1491853224.5585949421,1491853224.5609869957, -0.2093,  0.0395,  0.0294,  0.0179,  0.0021,  0.1566
1491853224.5613589287,1491853224.5638799667, -0.2093,  0.0395,  0.0294,  0.0179,  0.0021,  0.1566
1491853224.5642650127,1491853224.5665650368, -0.2093,  0.0395,  0.0294,  0.0179,  0.0021,  0.1065
1491853224.5669350624,1491853224.5692288876, -0.2093,  0.0395,  0.0294, -0.0025,  0.0114,  0.1065
1491853224.5695989132,1491853224.5719029903, -0.2093,  0.0395,  0.0294, -0.0025,  0.0114,  0.1065
1491853224.5722711086,1491853224.5746040344, -0.2093,  0.0395,  0.0294, -0.0025,  0.0114,  0.1065
1491853224.5749790668,1491853224.5774030685, -0.2093,  0.0395,  0.0294, -0.0025,  0.0259,  0.0964
1491853224.5777790546,1491853224.5802071095, -0.2062,  0.0309, -0.0095,  0.0214,  0.0259,  0.0964
1491853224.5805850029,1491853224.5830059052, -0.2062,  0.0309, -0.0095,  0.0214,  0.0259,  0.0964
1491853224.5833809376,1491853224.5858108997, -0.2062,  0.0309, -0.0095,  0.0214,  0.0259,  0.0964
1491853224.5861868858,1491853224.5886070728, -0.2062,  0.0309, -0.0095,  0.0425,  0.0383,  0.0828
1491853224.5890910625,1491853224.5915200710, -0.2062,  0.0309, -0.0095,  0.0425,  0.0383,  0.0828
1491853224.5918979645,1491853224.5943439007, -0.2062,  0.0309, -0.0095,  0.0425,  0.0383,  0.0828
1491853224.5947210789,1491853224.5971460342, -0.2062,  0.0309, -0.0095,  0.0425,  0.0383,  0.0828
1491853224.5975220203,1491853224.5999441147, -0.1947,  0.0218, -0.0403,  0.0576,  0.0472,  0.0604
1491853224.6003201008,1491853224.6027510166, -0.1947,  0.0218, -0.0403,  0.0576,  0.0472,  0.0604
1491853224.6031260490,1491853224.6055619717, -0.1947,  0.0218, -0.0403,  0.0576,  0.0472,  0.0604
1491853224.6059360504,1491853224.6083710194, -0.1947,  0.0218, -0.0403,  0.0576,  0.0519,  0.0464
1491853224.6087460518,1491853224.6111700535, -0.1947,  0.0218, -0.0403,  0.0701,  0.0519,  0.0464
1491853224.6115460396,1491853224.6139678955, -0.1947,  0.0218, -0.0403,  0.0701,  0.0519,  0.0464
1491853224.6144020557,1491853224.6167070866, -0.1947,  0.0218, -0.0403,  0.0701,  0.0519,  0.0464
1491853224.6170749664,1491853224.6193740368, -0.1863, -0.0052, -0.0115,  0.0648,  0.0467,  0.0331
1491853224.6197431087,1491853224.6220459938, -0.1863, -0.0052, -0.0115,  0.0648,  0.0467,  0.0331
1491853224.6224160194,1491853224.6247220039, -0.1863, -0.0052, -0.0115,  0.0648,  0.0467,  0.0331
1491853224.6250910759,1491853224.6273870468, -0.1863, -0.0052, -0.0115,  0.0648,  0.0467,  0.0331
1491853224.6277570724,1491853224.6300580502, -0.1863, -0.0052, -0.0115,  0.0598,  0.0390,  0.0296
1491853224.6304259300,1491853224.6327219009, -0.1863, -0.0052, -0.0115,  0.0598,  0.0390,  0.0296
1491853224.6330909729,1491853224.6355080605, -0.1863, -0.0052, -0.0115,  0.0598,  0.0390,  0.0296
1491853224.6358840466,1491853224.6383020878, -0.1863, -0.0052, -0.0063,  0.0598,  0.0390,  0.0296
1491853224.6386799812,1491853224.6410880089, -0.1818, -0.0062, -0.0063,  0.0551,  0.0348,  0.0281
1491853224.6414639950,1491853224.6438748837, -0.1818, -0.0062, -0.0063,  0.0551,  0.0348,  0.0281
1491853224.6442620754,1491853224.6466789246, -0.1818, -0.0062, -0.0063,  0.0551,  0.0348,  0.0281
1491853224.6470549107,1491853224.6494660378, -0.1818, -0.0062, -0.0063,  0.0551,  0.0285,  0.0274
1491853224.6498429775,1491853224.6522541046, -0.1818, -0.0062, -0.0063,  0.0453,  0.0285,  0.0274
1491853224.6526288986,1491853224.6550779343, -0.1818, -0.0062, -0.0063,  0.0453,  0.0285,  0.0274
1491853224.6554520130,1491853224.6578359604, -0.1818, -0.0062,  0.0094,  0.0453,  0.0285,  0.0274
1491853224.6582129002,1491853224.6606109142, -0.1881, -0.0163,  0.0145,  0.0419,  0.0288,  0.0289
1491853224.6609840393,1491853224.6634600163, -0.1881, -0.0163,  0.0145,  0.0419,  0.0288,  0.0289
1491853224.6638360023,1491853224.6661570072, -0.1881, -0.0163,  0.0145,  0.0419,  0.0288,  0.0289
1491853224.6665248871,1491853224.6688280106, -0.1881, -0.0163,  0.0145,  0.0419,  0.0288,  0.0289
1491853224.6691999435,1491853224.6714930534, -0.1881, -0.0163,  0.0145,  0.0395,  0.0301,  0.0324
1491853224.6718618870,1491853224.6741809845, -0.1881, -0.0163,  0.0145,  0.0395,  0.0301,  0.0324
1491853224.6745579243,1491853224.6769859791, -0.1881, -0.0163,  0.0145,  0.0395,  0.0301,  0.0324
1491853224.6773619652,1491853224.6797800064, -0.1870, -0.0083,  0.0054,  0.0395,  0.0301,  0.0391
1491853224.6801578999,1491853224.6825881004, -0.1870, -0.0083,  0.0054,  0.0331,  0.0289,  0.0391
1491853224.6829659939,1491853224.6853940487, -0.1870, -0.0083,  0.0054,  0.0331,  0.0289,  0.0391
1491853224.6857719421,1491853224.6881918907, -0.1870, -0.0083,  0.0054,  0.0331,  0.0289,  0.0391
1491853224.6885690689,1491853224.6909968853, -0.1870, -0.0083,  0.0054,  0.0247,  0.0276,  0.0420
1491853224.6913759708,1491853224.6938021183, -0.1870, -0.0083,  0.0054,  0.0247,  0.0276,  0.0420
1491853224.6941900253,1491853224.6966190338, -0.1870, -0.0083,  0.0054,  0.0247,  0.0276,  0.0420
1491853224.6969940662,1491853224.6994171143, -0.1895,  0.0006,  0.0020,  0.0247,  0.0276,  0.0420
1491853224.6997931004,1491853224.7022209167, -0.1895,  0.0006,  0.0020,  0.0249,  0.0281,  0.0433
1491853224.7025990486,1491853224.7050690651, -0.1895,  0.0006,  0.0020,  0.0249,  0.0281,  0.0433
1491853224.7055530548,1491853224.7079749107, -0.1895,  0.0006,  0.0020,  0.0249,  0.0281,  0.0433
1491853224.7083520889,1491853224.7107698917, -0.1895,  0.0006,  0.0020,  0.0249,  0.0281,  0.0473
1491853224.7111461163,1491853224.7135789394, -0.1895,  0.0006,  0.0020,  0.0233,  0.0284,  0.0473
1491853224.7139549255,1491853224.7162780762, -0.1895,  0.0006,  0.0020,  0.0233,  0.0284,  0.0473
1491853224.7166459560,1491853224.7189478874, -0.1881,  0.0050,  0.0011,  0.0233,  0.0284,  0.0473
1491853224.7193179131,1491853224.7216138840, -0.1881,  0.0050,  0.0011,  0.0311,  0.0306,  0.0503
1491853224.7219839096,1491853224.7243371010, -0.1881,  0.0050,  0.0011,  0.0274,  0.0306,  0.0503
1491853224.7247180939,1491853224.7271480560, -0.1881,  0.0050,  0.0011,  0.0274,  0.0306,  0.0503
1491853224.7275240421,1491853224.7299499512, -0.1881,  0.0050,  0.0011,  0.0274,  0.0306,  0.0503
1491853224.7303268909,1491853224.7327539921, -0.1881,  0.0050,  0.0011,  0.0319,  0.0302,  0.0514
1491853224.7331309319,1491853224.7355759144, -0.1881,  0.0050,  0.0011,  0.0319,  0.0302,  0.0514
