Accel X
P_i,P_t,P_x,T_i,T_t,T_p
1658,1491852973.3944010735,-0.039450,1244,1491852972.2450718880,-0.262200
2250,1491852975.0390529633,-0.030750,1858,1491852973.9503650665,-0.247725
2835,1491852976.6644558907,-0.002400,2436,1491852975.5557880402,-0.311250
3392,1491852978.2099940777,-0.012750,3021,1491852977.1815960407,-0.307350
3592,1491852978.7651360035,-0.006225,3585,1491852978.7455129623,-0.353325
3977,1491852979.8358280659,0.007200,4163,1491852980.3520910740,-0.287850
4541,1491852981.4024829865,0.022575,5026,1491852982.7501809597,-0.229725
5097,1491852982.9475729465,0.010200,5647,1491852984.4744420052,-0.225525
5669,1491852984.5352959633,-0.013425,5861,1491852985.0678439140,-0.279225
5868,1491852985.0874850750,-0.007425,6368,1491852986.4766829014,-0.238575
6247,1491852986.1404619217,0.025725,7360,1491852989.2302770615,-0.246000
6818,1491852987.7250649929,0.011550,7575,1491852989.8273839951,-0.242550
7382,1491852989.2911009789,0.041550,8460,1491852992.2833380699,-0.236550
7582,1491852989.8470170498,-0.041025,8725,1491852993.0186679363,-0.340725
7967,1491852990.9157071114,-0.018975,9304,1491852994.6233839989,-0.248775
8546,1491852992.5216848850,-0.005400,10190,1491852997.0795869827,-0.277575
8732,1491852993.0380649567,0.013800,10944,1491852999.1820731163,-0.382800
9118,1491852994.1075150967,-0.040125,11496,1491853000.7082550526,-0.297675
9675,1491852995.6523120403,-0.006975,11812,1491853001.5817680359,-0.255900
10212,1491852997.1402769089,-0.043275,12062,1491853002.2749309540,-0.377100
10758,1491852998.6674940586,-0.037875,12398,1491853003.2063651085,-0.244200
10951,1491852999.2011818886,0.064050,12598,1491853003.7612550259,-0.256350
11317,1491853000.2125740051,-0.037125,13134,1491853005.2481389046,-0.345600
11503,1491853000.7277090549,-0.010275,13462,1491853006.1595849991,-0.214200
11890,1491853001.7976949215,-0.012450,14019,1491853007.7057778835,-0.247050
12419,1491853003.2648739815,0.001650,14226,1491853008.2796640396,-0.320550
12955,1491853004.7513809204,-0.029550,15062,1491853010.5991289616,-0.242850
13141,1491853005.2675559521,-0.020475,15276,1491853011.1934530735,-0.273825
13491,1491853006.2400369644,0.011325,15612,1491853012.1261899471,-0.253575
14040,1491853007.7638471127,0.014325,15805,1491853012.6612210274,-0.347325
14576,1491853009.2509620190,0.011850,16347,1491853014.1665310860,-0.296625
15105,1491853010.7183349133,0.003150,16884,1491853015.6539349556,-0.301350
15640,1491853012.2034590244,-0.016200,17390,1491853017.0602669716,-0.202725
16175,1491853013.6908640862,0.034050,,,
16712,1491853015.1765971184,0.035025,,,
17290,1491853016.7820029259,0.014550,,,



Accel Y
P_i,P_t,P_x,T_i,T_t,T_p
1028,1491852971.6486890316,0.085275,1258,1491852972.2830688953,-0.135075
1807,1491852973.8089420795,0.067350,1865,1491852973.9695129395,-0.151875
2371,1491852975.3749580383,0.079425,2450,1491852975.5945839882,-0.178425
3006,1491852977.1398000717,0.089250,3035,1491852977.2204999924,-0.194925
3371,1491852978.1513528824,0.068250,3599,1491852978.7848689556,-0.248325
3977,1491852979.8358280659,0.085875,4177,1491852980.3912889957,-0.144600
4698,1491852981.8389959335,0.102375,4733,1491852981.9364900589,-0.107175
5211,1491852983.2638940811,0.083175,5304,1491852983.5222771168,-0.126000
5811,1491852984.9294579029,0.074925,5876,1491852985.1092040539,-0.221100
6246,1491852986.1376559734,0.098175,6446,1491852986.6930260658,-0.134625
6789,1491852987.6445429325,0.086100,7018,1491852988.2802629471,-0.131175
7382,1491852989.2911009789,0.097275,7589,1491852989.8660600185,-0.249675
7967,1491852990.9157071114,0.082725,8167,1491852991.4713969231,-0.180300
8696,1491852992.9386699200,0.125325,8739,1491852993.0578548908,-0.189075
9261,1491852994.5047030449,0.113250,9304,1491852994.6233839989,-0.263400
9840,1491852996.1101529598,0.095775,9868,1491852996.1878769398,-0.168225
10383,1491852997.6144878864,0.103875,10398,1491852997.6565589905,-0.232425
10757,1491852998.6648290157,0.102150,10958,1491852999.2207190990,-0.274050
10966,1491852999.2422530651,0.139200,11510,1491853000.7469389439,-0.227850
12040,1491853002.2137401104,0.122550,12076,1491853002.3137700558,-0.133425
12419,1491853003.2648739815,0.106275,12376,1491853003.1456489563,-0.070500
12619,1491853003.8196070194,0.112875,12612,1491853003.8001608849,-0.192900
13655,1491853006.6953449249,0.093375,13148,1491853005.2872459888,-0.218475
14190,1491853008.1798560619,0.090000,13683,1491853006.7726979256,-0.102000
14726,1491853009.6672949791,0.115575,14233,1491853008.2990589142,-0.220125
15247,1491853011.1128449440,0.105300,14754,1491853009.7452309132,-0.188625
15797,1491853012.6393499374,0.116325,15290,1491853011.2318930626,-0.264300
16340,1491853014.1465559006,0.100575,15819,1491853012.7004129887,-0.260775
16869,1491853015.6128489971,0.102975,16354,1491853014.1860721111,-0.136575
17269,1491853016.7239670753,0.055950,16898,1491853015.6928830147,-0.212175
,,,17504,1491853017.3772060871,-0.164325



Accel Z
P_i,P_t,P_x,T_i,T_t,T_p
1865,1491852973.9695129395,0.105075,2421,1491852975.5140759945,-0.039975
2450,1491852975.5945839882,0.070950,2985,1491852977.0812768936,-0.036300
3034,1491852977.2176959515,0.056775,4134,1491852980.2719559669,-0.028575
3599,1491852978.7848689556,0.060450,5026,1491852982.7501809597,-0.036075
4177,1491852980.3912889957,0.107850,5290,1491852983.4830310345,-0.063600
4733,1491852981.9364900589,0.082350,5604,1491852984.3553130627,-0.036750
5061,1491852982.8476529121,0.049800,5861,1491852985.0678439140,-0.052575
5304,1491852983.5222771168,0.118350,6453,1491852986.7122619152,-0.042225
5639,1491852984.4523270130,0.067425,7574,1491852989.8245809078,-0.040125
5875,1491852985.1065421104,0.082200,8152,1491852991.4295389652,-0.042525
6446,1491852986.6930260658,0.101250,8710,1491852992.9779200554,-0.042900
7018,1491852988.2802629471,0.081150,9289,1491852994.5815219879,-0.054675
7624,1491852989.9631040096,0.045975,9854,1491852996.1489200592,-0.046425
8167,1491852991.4713969231,0.059625,10147,1491852996.9605588913,-0.038175
8738,1491852993.0550498962,0.087825,10383,1491852997.6144878864,-0.043350
9303,1491852994.6205840111,0.060975,10944,1491852999.1820731163,-0.055425
9875,1491852996.2075119019,0.070200,11496,1491853000.7082550526,-0.040050
10176,1491852997.0407910347,0.150000,12033,1491853002.1939899921,-0.040875
10412,1491852997.6950790882,0.060450,12590,1491853003.7393229008,-0.041400
10958,1491852999.2207190990,0.061275,12898,1491853004.5933918953,-0.049275
11238,1491852999.9936819077,0.095775,13426,1491853006.0593891144,-0.050100
11510,1491853000.7469389439,0.053625,13669,1491853006.7338099480,-0.048525
12076,1491853002.3137700558,0.067050,14219,1491853008.2601881027,-0.041250
12612,1491853003.8001608849,0.071475,14726,1491853009.6672949791,-0.039150
13148,1491853005.2872459888,0.098925,15276,1491853011.1934530735,-0.039000
13454,1491853006.1374969482,0.044700,16326,1491853014.1079111099,-0.051975
13690,1491853006.7923390865,0.101625,16869,1491853015.6128489971,-0.051825
14269,1491853008.3989789486,0.050625,,,
14761,1491853009.7648339272,0.084600,,,
15290,1491853011.2318930626,0.116175,,,
15819,1491853012.7004129887,0.084975,,,
16361,1491853014.2049579620,0.098775,,,
16898,1491853015.6928830147,0.094050,,,



Gyro X
P_i,P_t,P_x,T_i,T_t,T_p
1030,1491852971.6564888954,0.104325,1064,1491852971.7511498928,-0.085725
1865,1491852973.9719278812,0.055875,1888,1491852974.0355479717,-0.078300
2250,1491852975.0414791107,0.067725,3043,1491852977.2453188896,-0.078000
3410,1491852978.2625329494,0.061575,3496,1491852978.5011379719,-0.070275
3992,1491852979.8799920082,0.087000,4114,1491852980.2187180519,-0.071925
4495,1491852981.2769548893,0.085800,4684,1491852981.8021769524,-0.060525
4728,1491852981.9248890877,0.094050,5132,1491852983.0468499660,-0.098250
5058,1491852982.8416149616,0.109425,5317,1491852983.5608110428,-0.054300
5303,1491852983.5218999386,0.116025,5774,1491852984.8289389610,-0.070125
5681,1491852984.5714249611,0.096450,6448,1491852986.7007730007,-0.076950
6240,1491852986.1237230301,0.076500,6848,1491852987.8112061024,-0.086100
6818,1491852987.7274949551,0.084450,7593,1491852989.8793420792,-0.081825
7337,1491852989.1685450077,0.061575,8149,1491852991.4237051010,-0.071175
7967,1491852990.9181339741,0.122625,8683,1491852992.9048960209,-0.074250
8549,1491852992.5324409008,0.086625,9251,1491852994.4791560173,-0.053250
9121,1491852994.1181950569,0.081150,9878,1491852996.2183530331,-0.050775
9303,1491852994.6230080128,0.094650,10249,1491852997.2452850342,-0.064350
9678,1491852995.6626820564,0.100575,10961,1491852999.2312040329,-0.149025
10175,1491852997.0404219627,0.109425,11449,1491853000.5810890198,-0.053550
10405,1491852997.6777229309,0.087675,12077,1491853002.3190119267,-0.102825
10760,1491852998.6751189232,0.099075,12615,1491853003.8108050823,-0.107925
11319,1491853000.2206149101,0.161325,13164,1491853005.3341178894,-0.055575
11892,1491853001.8054180145,0.089400,13534,1491853006.3613729477,-0.110925
12422,1491853003.2756280899,0.122700,14146,1491853008.0599939823,-0.076950
12960,1491853004.7678110600,0.088725,14776,1491853009.8088929653,-0.059175
13501,1491853006.2701020241,0.129600,15110,1491853010.7340729237,-0.089100
14042,1491853007.7719199657,0.098550,15307,1491853011.2816948891,-0.068625
14587,1491853009.2838270664,0.104550,15826,1491853012.7214839458,-0.067050
15055,1491853010.5819499493,0.099825,16337,1491853014.1405770779,-0.082875
15277,1491853011.1986858845,0.071775,16879,1491853015.6423339844,-0.048150
15648,1491853012.2281401157,0.091800,17390,1491853017.0626859665,-0.120000
16185,1491853013.7203218937,0.087375,,,
16716,1491853015.1902720928,0.089400,,,
16898,1491853015.6953198910,0.102600,,,
17449,1491853017.2268600464,0.046650,,,



Gyro Y
P_i,P_t,P_x,T_i,T_t,T_p
1000,1491852971.5739040375,0.071475,480,1491852970.1332728863,-0.065700
1658,1491852973.3968310356,0.074850,1153,1491852971.9971909523,-0.074250
2228,1491852974.9807701111,0.068850,1765,1491852973.6950929165,-0.080925
2813,1491852976.6057739258,0.087825,2369,1491852975.3717589378,-0.113325
3392,1491852978.2124249935,0.078450,2954,1491852976.9977810383,-0.096375
3973,1491852979.8271141052,0.073125,3510,1491852978.5401289463,-0.101025
4540,1491852981.4021029472,0.065625,4058,1491852980.0631699562,-0.128250
5076,1491852982.8917310238,0.084225,4632,1491852981.6578230858,-0.119850
5644,1491852984.4684159756,0.104400,5225,1491852983.3052918911,-0.075900
6244,1491852986.1344819069,0.053850,5762,1491852984.7961380482,-0.112800
6796,1491852987.6661350727,0.056550,6340,1491852986.4009840488,-0.128700
7363,1491852989.2411270142,0.122625,6922,1491852988.0162739754,-0.095700
7582,1491852989.8494439125,0.047700,7482,1491852989.5712480545,-0.098700
8520,1491852992.4527149200,0.092025,8064,1491852991.1872150898,-0.150975
9099,1491852994.0572121143,0.057750,8650,1491852992.8126521111,-0.138375
9663,1491852995.6215429306,0.084675,9214,1491852994.3765540123,-0.126750
10153,1491852996.9795761108,0.073125,9770,1491852995.9177238941,-0.108225
10756,1491852998.6644608974,0.067575,10175,1491852997.0404219627,-0.061725
10946,1491852999.1898529530,0.074775,10869,1491852998.9758460522,-0.117000
11869,1491853001.7417960167,0.078675,11422,1491853000.5065100193,-0.128850
12414,1491853003.2532598972,0.070350,11988,1491853002.0719110966,-0.127500
12600,1491853003.7692389488,0.064950,12511,1491853003.5228118896,-0.099825
13464,1491853006.1676619053,0.061950,13056,1491853005.0346910954,-0.116550
14020,1491853007.7107460499,0.078000,13616,1491853006.5892100334,-0.105150
14569,1491853009.2337360382,0.070950,14153,1491853008.0794370174,-0.106650
15095,1491853010.6928899288,0.085050,14661,1491853009.4887208939,-0.126150
15622,1491853012.1557469368,0.094725,15191,1491853010.9599740505,-0.132000
16155,1491853013.6363780499,0.105675,15722,1491853012.4337570667,-0.108525
16705,1491853015.1596179008,0.077325,16262,1491853013.9326159954,-0.157125
17283,1491853016.7652239799,0.101025,16805,1491853015.4373190403,-0.115575
,,,17423,1491853017.1543951035,-0.084675



Gyro Z
P_i,P_t,P_x,T_i,T_t,T_p
993,1491852971.5543730259,0.286800,1123,1491852971.9138259888,-0.268425
1635,1491852973.3327031136,0.347175,1754,1491852973.6645150185,-0.325800
2217,1491852974.9501700401,0.341400,2336,1491852975.2798988819,-0.318900
2802,1491852976.5750770569,0.368700,2939,1491852976.9558200836,-0.312450
3366,1491852978.1399219036,0.370875,3466,1491852978.4179689884,-0.313575
3951,1491852979.7656900883,0.336375,4062,1491852980.0743899345,-0.321225
4514,1491852981.3295090199,0.370950,4595,1491852981.5545620918,-0.348900
5065,1491852982.8612980843,0.365925,5184,1491852983.1910219193,-0.291900
5647,1491852984.4767448902,0.358650,5732,1491852984.7128679752,-0.338700
6217,1491852986.0600180626,0.361500,6340,1491852986.4009840488,-0.337650
6785,1491852987.6357469559,0.362475,6870,1491852987.8717520237,-0.344025
7348,1491852989.1991410255,0.352725,7470,1491852989.5379331112,-0.296325
7933,1491852990.8241000175,0.317700,8071,1491852991.2069749832,-0.323100
8516,1491852992.4414970875,0.340725,8653,1491852992.8211319447,-0.336825
9084,1491852994.0155730247,0.334650,9217,1491852994.3849389553,-0.334725
9648,1491852995.5797228813,0.341250,9752,1491852995.8681900501,-0.332025
10186,1491852997.0712139606,0.362475,10316,1491852997.4307870865,-0.323775
10731,1491852998.5836520195,0.349725,10831,1491852998.8712608814,-0.340725
11285,1491853000.1266200542,0.330975,11389,1491853000.4148530960,-0.341250
11858,1491853001.7113759518,0.370650,11988,1491853002.0719110966,-0.376350
12392,1491853003.1919820309,0.401175,12496,1491853003.4811348915,-0.348150
12926,1491853004.6736979485,0.379500,13041,1491853004.9925038815,-0.358125
13463,1491853006.1648609638,0.355200,13553,1491853006.4142880440,-0.332625
14008,1491853007.6778841019,0.365175,14135,1491853008.0293610096,-0.353700
14238,1491853008.3152871132,0.326550,14639,1491853009.4279360771,-0.353625
14542,1491853009.1590828896,0.354525,15158,1491853010.8679358959,-0.346425
15069,1491853010.6207358837,0.368025,15703,1491853012.3808848858,-0.359325
15606,1491853012.1123170853,0.378150,16237,1491853013.8635270596,-0.356100
16147,1491853013.6145129204,0.364650,16805,1491853015.4373190403,-0.327600
16686,1491853015.1069090366,0.353325,17338,1491853016.9177460670,-0.317625
17264,1491853016.7124578953,0.342825,,,



