timestamp_before,timestamp_after,accel_x,accel_y,accel_z,gyro_x,gyro_y,gryo_z
1491853064.2247419357,1491853064.2273170948, -0.2174,  0.0047, -0.0101,  0.0061,  0.0017, -0.0114
1491853064.2277719975,1491853064.2300660610, -0.2174,  0.0047, -0.0101,  0.0057,  0.0016, -0.0125
1491853064.2304379940,1491853064.2327339649, -0.1879,  0.0030, -0.0072,  0.0057,  0.0016, -0.0125
1491853064.2331058979,1491853064.2354578972, -0.1879,  0.0030, -0.0072,  0.0057,  0.0016, -0.0125
1491853064.2358310223,1491853064.2381229401, -0.1879,  0.0030, -0.0072,  0.0057,  0.0016, -0.0125
1491853064.2384929657,1491853064.2407910824, -0.1879,  0.0030, -0.0072,  0.0057,  0.0019, -0.0125
1491853064.2411620617,1491853064.2434511185, -0.1879,  0.0030, -0.0072,  0.0057,  0.0019, -0.0125
1491853064.2438220978,1491853064.2463619709, -0.1879,  0.0030, -0.0072,  0.0057,  0.0019, -0.0125
1491853064.2467329502,1491853064.2490229607, -0.1879,  0.0030, -0.0072,  0.0057,  0.0019, -0.0125
1491853064.2493960857,1491853064.2516930103, -0.1879,  0.0027, -0.0067,  0.0046,  0.0013, -0.0121
1491853064.2520630360,1491853064.2543649673, -0.1876,  0.0027, -0.0067,  0.0046,  0.0013, -0.0121
1491853064.2547349930,1491853064.2570331097, -0.1876,  0.0027, -0.0067,  0.0046,  0.0013, -0.0121
1491853064.2574040890,1491853064.2596960068, -0.1876,  0.0027, -0.0067,  0.0046,  0.0013, -0.0121
1491853064.2600650787,1491853064.2623610497, -0.1876,  0.0027, -0.0067,  0.0043,  0.0010, -0.0124
1491853064.2627310753,1491853064.2652499676, -0.1876,  0.0027, -0.0067,  0.0043,  0.0010, -0.0124
1491853064.2656290531,1491853064.2680540085, -0.1876,  0.0027, -0.0067,  0.0043,  0.0010, -0.0124
1491853064.2684319019,1491853064.2708609104, -0.1876,  0.0027, -0.0067,  0.0043,  0.0004, -0.0119
1491853064.2712380886,1491853064.2736639977, -0.1881,  0.0031, -0.0057,  0.0049,  0.0004, -0.0119
1491853064.2740509510,1491853064.2764749527, -0.1881,  0.0031, -0.0057,  0.0049,  0.0004, -0.0119
1491853064.2768518925,1491853064.2792780399, -0.1881,  0.0031, -0.0057,  0.0049,  0.0004, -0.0119
1491853064.2796530724,1491853064.2820758820, -0.1881,  0.0031, -0.0057,  0.0057,  0.0002, -0.0114
1491853064.2824530602,1491853064.2848889828, -0.1881,  0.0031, -0.0057,  0.0057,  0.0002, -0.0114
1491853064.2852690220,1491853064.2876958847, -0.1881,  0.0031, -0.0057,  0.0057,  0.0002, -0.0114
1491853064.2880721092,1491853064.2904970646, -0.1881,  0.0031, -0.0057,  0.0057,  0.0002, -0.0114
1491853064.2908759117,1491853064.2932980061, -0.1877,  0.0034, -0.0060,  0.0055,  0.0009, -0.0128
1491853064.2936770916,1491853064.2961258888, -0.1877,  0.0034, -0.0060,  0.0055,  0.0009, -0.0128
1491853064.2965049744,1491853064.2989308834, -0.1877,  0.0034, -0.0060,  0.0055,  0.0009, -0.0128
1491853064.2993090153,1491853064.3017361164, -0.1877,  0.0034, -0.0060,  0.0055,  0.0003, -0.0131
1491853064.3021130562,1491853064.3045330048, -0.1877,  0.0034, -0.0060,  0.0054,  0.0003, -0.0131
1491853064.3049030304,1491853064.3072059155, -0.1877,  0.0034, -0.0060,  0.0054,  0.0003, -0.0131
1491853064.3075759411,1491853064.3098759651, -0.1877,  0.0034, -0.0060,  0.0054,  0.0003, -0.0131
1491853064.3103070259,1491853064.3126320839, -0.1877,  0.0032, -0.0044,  0.0055,  0.0002, -0.0126
1491853064.3130030632,1491853064.3153100014, -0.1877,  0.0032, -0.0044,  0.0055,  0.0002, -0.0126
1491853064.3156800270,1491853064.3179829121, -0.1877,  0.0032, -0.0044,  0.0055,  0.0002, -0.0126
1491853064.3183538914,1491853064.3206520081, -0.1877,  0.0032, -0.0044,  0.0055,  0.0002, -0.0126
1491853064.3210229874,1491853064.3233199120, -0.1877,  0.0032, -0.0044,  0.0064, -0.0000, -0.0121
1491853064.3236908913,1491853064.3261229992, -0.1877,  0.0032, -0.0044,  0.0064, -0.0000, -0.0121
1491853064.3264999390,1491853064.3289270401, -0.1877,  0.0032, -0.0044,  0.0064, -0.0000, -0.0121
1491853064.3293030262,1491853064.3317329884, -0.1874,  0.0033, -0.0071,  0.0064, -0.0000, -0.0121
1491853064.3321120739,1491853064.3345589638, -0.1874,  0.0033, -0.0071,  0.0062, -0.0002, -0.0135
1491853064.3349359035,1491853064.3373670578, -0.1874,  0.0033, -0.0071,  0.0062, -0.0002, -0.0135
1491853064.3377439976,1491853064.3401699066, -0.1874,  0.0033, -0.0071,  0.0062, -0.0002, -0.0135
1491853064.3406939507,1491853064.3431239128, -0.1874,  0.0033, -0.0071,  0.0063, -0.0000, -0.0131
1491853064.3435020447,1491853064.3458468914, -0.1874,  0.0033, -0.0071,  0.0063, -0.0000, -0.0131
1491853064.3462190628,1491853064.3485159874, -0.1874,  0.0033, -0.0071,  0.0063, -0.0000, -0.0131
1491853064.3488869667,1491853064.3511838913, -0.1874,  0.0028, -0.0082,  0.0063, -0.0000, -0.0131
1491853064.3515560627,1491853064.3538510799, -0.1874,  0.0028, -0.0082,  0.0062, -0.0008, -0.0129
1491853064.3542199135,1491853064.3565280437, -0.1874,  0.0028, -0.0082,  0.0062, -0.0008, -0.0129
1491853064.3568980694,1491853064.3591990471, -0.1874,  0.0028, -0.0082,  0.0062, -0.0008, -0.0129
1491853064.3595681190,1491853064.3618669510, -0.1874,  0.0028, -0.0082,  0.0062, -0.0008, -0.0129
1491853064.3622350693,1491853064.3646950722, -0.1874,  0.0028, -0.0082,  0.0059, -0.0017, -0.0130
1491853064.3650739193,1491853064.3674969673, -0.1874,  0.0028, -0.0082,  0.0059, -0.0017, -0.0130
1491853064.3678760529,1491853064.3703029156, -0.1874,  0.0028, -0.0049,  0.0059, -0.0017, -0.0130
1491853064.3706810474,1491853064.3731129169, -0.1885,  0.0028, -0.0049,  0.0059, -0.0017, -0.0131
1491853064.3734920025,1491853064.3759260178, -0.1885,  0.0028, -0.0049,  0.0042, -0.0016, -0.0131
1491853064.3763039112,1491853064.3787329197, -0.1885,  0.0028, -0.0049,  0.0042, -0.0016, -0.0131
1491853064.3791089058,1491853064.3815360069, -0.1885,  0.0028, -0.0049,  0.0042, -0.0016, -0.0131
1491853064.3819129467,1491853064.3843500614, -0.1885,  0.0028, -0.0049,  0.0044, -0.0014, -0.0138
1491853064.3847260475,1491853064.3871550560, -0.1885,  0.0028, -0.0049,  0.0044, -0.0014, -0.0138
1491853064.3875329494,1491853064.3899559975, -0.1885,  0.0028, -0.0049,  0.0044, -0.0014, -0.0138
1491853064.3903329372,1491853064.3927528858, -0.1877,  0.0024, -0.0060,  0.0044, -0.0014, -0.0138
1491853064.3931300640,1491853064.3955709934, -0.1877,  0.0024, -0.0060,  0.0052, -0.0018, -0.0134
1491853064.3959510326,1491853064.3983740807, -0.1877,  0.0024, -0.0060,  0.0052, -0.0018, -0.0134
1491853064.3987469673,1491853064.4010510445, -0.1877,  0.0024, -0.0060,  0.0052, -0.0018, -0.0134
1491853064.4014239311,1491853064.4037220478, -0.1877,  0.0024, -0.0060,  0.0052, -0.0018, -0.0134
1491853064.4042348862,1491853064.4066228867, -0.1877,  0.0024, -0.0060,  0.0041, -0.0019, -0.0138
1491853064.4070029259,1491853064.4093968868, -0.1877,  0.0024, -0.0060,  0.0041, -0.0019, -0.0138
1491853064.4098339081,1491853064.4122378826, -0.1870,  0.0023, -0.0069,  0.0041, -0.0019, -0.0138
1491853064.4126160145,1491853064.4156370163, -0.1870,  0.0023, -0.0069,  0.0021, -0.0012, -0.0141
1491853064.4160130024,1491853064.4183089733, -0.1870,  0.0023, -0.0069,  0.0021, -0.0012, -0.0141
1491853064.4186820984,1491853064.4209790230, -0.1870,  0.0023, -0.0069,  0.0021, -0.0012, -0.0141
1491853064.4213509560,1491853064.4236569405, -0.1870,  0.0023, -0.0069,  0.0021, -0.0012, -0.0141
1491853064.4240579605,1491853064.4263620377, -0.1870,  0.0023, -0.0069, -0.0013, -0.0021, -0.0143
1491853064.4267339706,1491853064.4290339947, -0.1870,  0.0023, -0.0069, -0.0013, -0.0021, -0.0143
1491853064.4294049740,1491853064.4317018986, -0.1867,  0.0022, -0.0094, -0.0013, -0.0021, -0.0143
1491853064.4320740700,1491853064.4344110489, -0.1867,  0.0022, -0.0094, -0.0013, -0.0021, -0.0143
1491853064.4347898960,1491853064.4372210503, -0.1867,  0.0022, -0.0094, -0.0007, -0.0053, -0.0146
1491853064.4375989437,1491853064.4400260448, -0.1867,  0.0022, -0.0094, -0.0007, -0.0053, -0.0146
1491853064.4404029846,1491853064.4428279400, -0.1867,  0.0022, -0.0094, -0.0007, -0.0053, -0.0146
1491853064.4432060719,1491853064.4456129074, -0.1867,  0.0022, -0.0094, -0.0007, -0.0057, -0.0143
1491853064.4459829330,1491853064.4482851028, -0.1867,  0.0022, -0.0094, -0.0008, -0.0057, -0.0143
1491853064.4486539364,1491853064.4509570599, -0.1890,  0.0019, -0.0010, -0.0008, -0.0057, -0.0143
1491853064.4513270855,1491853064.4536259174, -0.1890,  0.0019, -0.0010, -0.0008, -0.0057, -0.0143
1491853064.4540839195,1491853064.4563820362, -0.1890,  0.0019, -0.0010, -0.0004, -0.0047, -0.0138
1491853064.4567530155,1491853064.4590470791, -0.1890,  0.0019, -0.0010, -0.0004, -0.0047, -0.0138
1491853064.4594149590,1491853064.4617140293, -0.1890,  0.0019, -0.0010, -0.0004, -0.0047, -0.0138
1491853064.4620840549,1491853064.4644310474, -0.1890,  0.0019, -0.0010, -0.0004, -0.0047, -0.0138
1491853064.4648020267,1491853064.4671080112, -0.1890,  0.0019, -0.0010,  0.0016, -0.0034, -0.0131
1491853064.4674780369,1491853064.4697740078, -0.1890,  0.0027, -0.0031,  0.0016, -0.0034, -0.0131
1491853064.4701468945,1491853064.4724450111, -0.1880,  0.0027, -0.0031,  0.0016, -0.0034, -0.0131
1491853064.4728169441,1491853064.4752860069, -0.1880,  0.0027, -0.0031,  0.0016, -0.0034, -0.0131
1491853064.4756650925,1491853064.4780869484, -0.1880,  0.0027, -0.0031,  0.0028, -0.0028, -0.0131
1491853064.4784638882,1491853064.4808859825, -0.1880,  0.0027, -0.0031,  0.0028, -0.0028, -0.0131
1491853064.4812660217,1491853064.4836909771, -0.1880,  0.0027, -0.0031,  0.0028, -0.0028, -0.0131
1491853064.4840769768,1491853064.4865009785, -0.1880,  0.0027, -0.0031,  0.0028, -0.0028, -0.0135
1491853064.4868791103,1491853064.4893090725, -0.1880,  0.0027, -0.0024,  0.0039, -0.0014, -0.0135
1491853064.4896869659,1491853064.4921109676, -0.1884,  0.0023, -0.0024,  0.0039, -0.0014, -0.0135
1491853064.4924890995,1491853064.4949209690, -0.1884,  0.0023, -0.0024,  0.0039, -0.0014, -0.0135
1491853064.4952979088,1491853064.4977269173, -0.1884,  0.0023, -0.0024,  0.0056, -0.0001, -0.0138
1491853064.4981040955,1491853064.5005319118, -0.1884,  0.0023, -0.0024,  0.0056, -0.0001, -0.0138
1491853064.5009119511,1491853064.5033340454, -0.1884,  0.0023, -0.0024,  0.0056, -0.0001, -0.0138
1491853064.5037119389,1491853064.5060410500, -0.1884,  0.0023, -0.0024,  0.0056, -0.0001, -0.0138
1491853064.5064129829,1491853064.5087099075, -0.1884,  0.0023, -0.0024,  0.0073,  0.0005, -0.0137
1491853064.5090780258,1491853064.5113759041, -0.1882,  0.0018, -0.0023,  0.0073,  0.0005, -0.0137
1491853064.5117468834,1491853064.5140850544, -0.1882,  0.0018, -0.0023,  0.0073,  0.0005, -0.0137
1491853064.5144639015,1491853064.5168859959, -0.1882,  0.0018, -0.0023,  0.0073,  0.0005, -0.0137
1491853064.5172629356,1491853064.5196850300, -0.1882,  0.0018, -0.0023,  0.0055,  0.0020, -0.0143
1491853064.5200629234,1491853064.5224840641, -0.1882,  0.0018, -0.0023,  0.0055,  0.0020, -0.0143
1491853064.5228619576,1491853064.5252981186, -0.1882,  0.0018, -0.0023,  0.0055,  0.0020, -0.0143
1491853064.5256779194,1491853064.5281059742, -0.1882,  0.0018, -0.0023,  0.0055,  0.0018, -0.0141
1491853064.5284841061,1491853064.5309610367, -0.1870,  0.0018, -0.0068,  0.0012,  0.0018, -0.0141
1491853064.5313410759,1491853064.5337779522, -0.1870,  0.0018, -0.0068,  0.0012,  0.0018, -0.0141
1491853064.5341670513,1491853064.5365939140, -0.1870,  0.0018, -0.0068,  0.0012,  0.0018, -0.0141
1491853064.5369729996,1491853064.5394039154, -0.1870,  0.0018, -0.0068,  0.0006,  0.0001, -0.0137
1491853064.5397830009,1491853064.5422029495, -0.1870,  0.0018, -0.0068,  0.0006,  0.0001, -0.0137
1491853064.5425798893,1491853064.5450739861, -0.1870,  0.0018, -0.0068,  0.0006,  0.0001, -0.0137
1491853064.5454530716,1491853064.5478820801, -0.1870,  0.0018, -0.0068,  0.0006,  0.0001, -0.0133
1491853064.5482609272,1491853064.5506849289, -0.1883,  0.0016, -0.0043,  0.0021,  0.0001, -0.0133
1491853064.5510630608,1491853064.5534970760, -0.1883,  0.0016, -0.0043,  0.0021,  0.0001, -0.0133
1491853064.5538749695,1491853064.5562019348, -0.1883,  0.0016, -0.0043,  0.0021,  0.0001, -0.0133
1491853064.5565741062,1491853064.5588738918, -0.1883,  0.0016, -0.0043,  0.0021,  0.0009, -0.0137
1491853064.5592420101,1491853064.5615448952, -0.1883,  0.0016, -0.0043,  0.0021,  0.0009, -0.0137
1491853064.5619161129,1491853064.5642600060, -0.1883,  0.0016, -0.0043,  0.0021,  0.0009, -0.0137
1491853064.5646300316,1491853064.5669229031, -0.1883,  0.0016, -0.0043,  0.0021,  0.0009, -0.0137
1491853064.5672919750,1491853064.5695888996, -0.1880,  0.0030, -0.0031,  0.0026,  0.0007, -0.0142
1491853064.5700750351,1491853064.5723719597, -0.1880,  0.0030, -0.0031,  0.0026,  0.0007, -0.0142
1491853064.5727419853,1491853064.5750761032, -0.1880,  0.0030, -0.0031,  0.0026,  0.0007, -0.0142
1491853064.5754480362,1491853064.5777471066, -0.1880,  0.0030, -0.0031,  0.0026,  0.0007, -0.0142
1491853064.5781159401,1491853064.5804150105, -0.1880,  0.0030, -0.0031,  0.0052, -0.0001, -0.0143
1491853064.5807859898,1491853064.5830879211, -0.1880,  0.0030, -0.0031,  0.0052, -0.0001, -0.0143
1491853064.5834589005,1491853064.5859000683, -0.1880,  0.0030, -0.0031,  0.0052, -0.0001, -0.0143
1491853064.5862710476,1491853064.5885679722, -0.1880,  0.0021, -0.0018,  0.0052, -0.0001, -0.0143
1491853064.5889389515,1491853064.5912420750, -0.1887,  0.0021, -0.0018,  0.0071,  0.0016, -0.0157
1491853064.5916130543,1491853064.5939130783, -0.1887,  0.0021, -0.0018,  0.0071,  0.0016, -0.0157
1491853064.5942900181,1491853064.5967230797, -0.1887,  0.0021, -0.0018,  0.0071,  0.0016, -0.0157
1491853064.5971040726,1491853064.5995330811, -0.1887,  0.0021, -0.0018,  0.0071,  0.0016, -0.0166
1491853064.5999128819,1491853064.6023409367, -0.1887,  0.0021, -0.0018,  0.0076,  0.0035, -0.0166
1491853064.6027181149,1491853064.6051130295, -0.1887,  0.0021, -0.0018,  0.0076,  0.0035, -0.0166
1491853064.6054830551,1491853064.6077818871, -0.1887,  0.0021, -0.0018,  0.0076,  0.0035, -0.0166
1491853064.6081519127,1491853064.6104490757, -0.1890,  0.0010, -0.0034,  0.0092,  0.0045, -0.0157
1491853064.6108200550,1491853064.6131238937, -0.1890,  0.0010, -0.0034,  0.0092,  0.0045, -0.0157
1491853064.6134951115,1491853064.6159360409, -0.1890,  0.0010, -0.0034,  0.0092,  0.0045, -0.0157
1491853064.6163129807,1491853064.6187229156, -0.1890,  0.0010, -0.0034,  0.0092,  0.0045, -0.0157
1491853064.6191000938,1491853064.6215140820, -0.1890,  0.0010, -0.0034,  0.0085,  0.0056, -0.0155
1491853064.6218929291,1491853064.6243178844, -0.1890,  0.0010, -0.0034,  0.0085,  0.0056, -0.0155
1491853064.6246960163,1491853064.6271140575, -0.1890,  0.0010, -0.0034,  0.0085,  0.0056, -0.0155
1491853064.6274909973,1491853064.6299090385, -0.1889,  0.0003, -0.0038,  0.0085,  0.0056, -0.0155
1491853064.6302869320,1491853064.6326909065, -0.1889,  0.0003, -0.0038,  0.0078,  0.0052, -0.0155
1491853064.6330680847,1491853064.6354930401, -0.1889,  0.0003, -0.0038,  0.0078,  0.0052, -0.0155
1491853064.6358690262,1491853064.6382820606, -0.1889,  0.0003, -0.0038,  0.0078,  0.0052, -0.0155
1491853064.6386580467,1491853064.6410739422, -0.1889,  0.0003, -0.0038,  0.0078,  0.0061, -0.0150
1491853064.6414530277,1491853064.6438679695, -0.1889,  0.0003, -0.0038,  0.0051,  0.0061, -0.0150
1491853064.6442520618,1491853064.6467509270, -0.1889,  0.0003, -0.0038,  0.0051,  0.0061, -0.0150
1491853064.6471290588,1491853064.6495580673, -0.1889, -0.0001, -0.0030,  0.0051,  0.0061, -0.0150
1491853064.6499381065,1491853064.6523649693, -0.1889, -0.0001, -0.0030,  0.0033,  0.0073, -0.0148
1491853064.6527409554,1491853064.6551229954, -0.1889, -0.0001, -0.0030,  0.0033,  0.0073, -0.0148
1491853064.6554939747,1491853064.6577970982, -0.1889, -0.0001, -0.0030,  0.0033,  0.0073, -0.0148
1491853064.6581668854,1491853064.6604700089, -0.1889, -0.0001, -0.0030,  0.0033,  0.0073, -0.0148
1491853064.6608409882,1491853064.6631419659, -0.1889, -0.0001, -0.0030,  0.0036,  0.0077, -0.0142
1491853064.6635129452,1491853064.6659419537, -0.1889, -0.0001, -0.0030,  0.0036,  0.0077, -0.0142
1491853064.6663210392,1491853064.6687440872, -0.1881,  0.0011, -0.0018,  0.0036,  0.0077, -0.0142
1491853064.6691219807,1491853064.6715519428, -0.1881,  0.0011, -0.0018,  0.0036,  0.0077, -0.0140
1491853064.6719310284,1491853064.6743659973, -0.1881,  0.0011, -0.0018,  0.0031,  0.0076, -0.0140
1491853064.6747460365,1491853064.6771769524, -0.1881,  0.0011, -0.0018,  0.0031,  0.0076, -0.0140
1491853064.6775538921,1491853064.6799910069, -0.1881,  0.0011, -0.0018,  0.0031,  0.0076, -0.0140
1491853064.6803719997,1491853064.6827960014, -0.1881,  0.0011, -0.0018,  0.0033,  0.0077, -0.0147
1491853064.6831738949,1491853064.6856079102, -0.1881,  0.0011, -0.0018,  0.0033,  0.0077, -0.0147
1491853064.6860959530,1491853064.6885259151, -0.1884,  0.0010, -0.0038,  0.0033,  0.0077, -0.0147
1491853064.6889050007,1491853064.6913290024, -0.1884,  0.0010, -0.0038,  0.0033,  0.0077, -0.0147
1491853064.6917059422,1491853064.6941440105, -0.1884,  0.0010, -0.0038,  0.0031,  0.0084, -0.0150
1491853064.6945219040,1491853064.6969470978, -0.1884,  0.0010, -0.0038,  0.0031,  0.0084, -0.0150
1491853064.6973259449,1491853064.6997539997, -0.1884,  0.0010, -0.0038,  0.0031,  0.0084, -0.0150
1491853064.7001309395,1491853064.7025630474, -0.1884,  0.0010, -0.0038,  0.0031,  0.0084, -0.0144
1491853064.7029430866,1491853064.7053160667, -0.1884,  0.0010, -0.0038,  0.0039,  0.0087, -0.0144
1491853064.7056849003,1491853064.7079861164, -0.1882,  0.0007, -0.0042,  0.0039,  0.0087, -0.0144
1491853064.7083549500,1491853064.7106530666, -0.1882,  0.0007, -0.0042,  0.0039,  0.0087, -0.0144
1491853064.7110230923,1491853064.7133250237, -0.1882,  0.0007, -0.0042,  0.0032,  0.0099, -0.0142
1491853064.7136940956,1491853064.7161180973, -0.1882,  0.0007, -0.0042,  0.0032,  0.0099, -0.0142
1491853064.7164950371,1491853064.7189049721, -0.1882,  0.0007, -0.0042,  0.0032,  0.0099, -0.0142
1491853064.7192819118,1491853064.7216899395, -0.1882,  0.0007, -0.0042,  0.0032,  0.0099, -0.0142
1491853064.7220659256,1491853064.7244920731, -0.1882,  0.0007, -0.0042,  0.0018,  0.0108, -0.0151
1491853064.7248690128,1491853064.7272810936, -0.1882,  0.0007, -0.0035,  0.0018,  0.0108, -0.0151
1491853064.7276580334,1491853064.7300679684, -0.1886,  0.0005, -0.0035,  0.0018,  0.0108, -0.0151
1491853064.7304461002,1491853064.7328639030, -0.1886,  0.0005, -0.0035,  0.0018,  0.0108, -0.0151
1491853064.7332410812,1491853064.7356660366, -0.1886,  0.0005, -0.0035,  0.0002,  0.0110, -0.0145
1491853064.7360429764,1491853064.7384610176, -0.1886,  0.0005, -0.0035,  0.0002,  0.0110, -0.0145
1491853064.7388379574,1491853064.7412469387, -0.1886,  0.0005, -0.0035,  0.0002,  0.0110, -0.0145
1491853064.7416219711,1491853064.7440729141, -0.1886,  0.0005, -0.0035,  0.0002,  0.0125, -0.0147
1491853064.7444489002,1491853064.7469539642, -0.1886,  0.0005, -0.0026,  0.0008,  0.0125, -0.0147
1491853064.7473330498,1491853064.7497560978, -0.1894,  0.0004, -0.0026,  0.0008,  0.0125, -0.0147
1491853064.7501330376,1491853064.7525589466, -0.1894,  0.0004, -0.0026,  0.0008,  0.0125, -0.0147
1491853064.7529358864,1491853064.7553191185, -0.1894,  0.0004, -0.0026,  0.0011,  0.0130, -0.0147
1491853064.7556889057,1491853064.7579910755, -0.1894,  0.0004, -0.0026,  0.0011,  0.0130, -0.0147
1491853064.7583599091,1491853064.7606680393, -0.1894,  0.0004, -0.0026,  0.0011,  0.0130, -0.0147
1491853064.7610371113,1491853064.7633390427, -0.1894,  0.0004, -0.0026,  0.0011,  0.0130, -0.0147
1491853064.7637069225,1491853064.7661249638, -0.1894,  0.0004, -0.0026,  0.0007,  0.0144, -0.0143
1491853064.7665030956,1491853064.7689349651, -0.1890,  0.0005, -0.0019,  0.0007,  0.0144, -0.0143
1491853064.7693130970,1491853064.7717359066, -0.1890,  0.0005, -0.0019,  0.0007,  0.0144, -0.0143
1491853064.7721130848,1491853064.7745509148, -0.1890,  0.0005, -0.0019,  0.0007,  0.0222, -0.0144
1491853064.7749280930,1491853064.7773580551, -0.1890,  0.0005, -0.0019,  0.0001,  0.0160, -0.0144
1491853064.7777340412,1491853064.7801609039, -0.1890,  0.0005, -0.0019,  0.0001,  0.0160, -0.0144
1491853064.7805390358,1491853064.7829680443, -0.1890,  0.0005, -0.0019,  0.0001,  0.0160, -0.0144
1491853064.7833440304,1491853064.7857809067, -0.1890,  0.0005, -0.0019,  0.0002,  0.0174, -0.0138
1491853064.7861580849,1491853064.7885799408, -0.1888, -0.0000, -0.0042,  0.0002,  0.0174, -0.0138
1491853064.7889580727,1491853064.7913908958, -0.1888, -0.0000, -0.0042,  0.0002,  0.0174, -0.0138
1491853064.7917659283,1491853064.7941930294, -0.1888, -0.0000, -0.0042,  0.0002,  0.0174, -0.0138
1491853064.7945690155,1491853064.7969961166, -0.1888, -0.0000, -0.0042,  0.0006,  0.0179, -0.0131
1491853064.7973721027,1491853064.7998089790, -0.1888, -0.0000, -0.0042,  0.0006,  0.0179, -0.0131
1491853064.8001871109,1491853064.8026130199, -0.1888, -0.0000, -0.0042,  0.0006,  0.0179, -0.0131
1491853064.8031020164,1491853064.8054740429, -0.1888, -0.0000, -0.0042,  0.0006,  0.0179, -0.0124
1491853064.8058419228,1491853064.8081459999, -0.1884,  0.0000, -0.0049,  0.0008,  0.0190, -0.0124
1491853064.8085169792,1491853064.8108100891, -0.1884,  0.0000, -0.0049,  0.0008,  0.0190, -0.0124
1491853064.8111801147,1491853064.8134810925, -0.1884,  0.0000, -0.0049,  0.0008,  0.0190, -0.0124
1491853064.8138511181,1491853064.8161900043, -0.1884,  0.0000, -0.0049,  0.0003,  0.0194, -0.0122
1491853064.8165590763,1491853064.8188519478, -0.1884,  0.0000, -0.0049,  0.0003,  0.0194, -0.0122
1491853064.8192200661,1491853064.8215200901, -0.1884,  0.0000, -0.0049,  0.0003,  0.0194, -0.0122
1491853064.8218901157,1491853064.8242108822, -0.1884,  0.0000, -0.0049,  0.0003,  0.0194, -0.0122
1491853064.8245880604,1491853064.8270039558, -0.1892, -0.0006, -0.0066, -0.0009,  0.0197, -0.0122
1491853064.8273789883,1491853064.8297929764, -0.1892, -0.0006, -0.0066, -0.0009,  0.0197, -0.0122
1491853064.8301689625,1491853064.8325800896, -0.1892, -0.0006, -0.0066, -0.0009,  0.0197, -0.0122
1491853064.8329570293,1491853064.8353788853, -0.1892, -0.0006, -0.0066, -0.0009,  0.0197, -0.0122
1491853064.8357560635,1491853064.8381700516, -0.1892, -0.0006, -0.0066, -0.0020,  0.0211, -0.0123
1491853064.8385469913,1491853064.8409600258, -0.1892, -0.0006, -0.0066, -0.0020,  0.0211, -0.0123
1491853064.8413360119,1491853064.8437530994, -0.1892, -0.0006, -0.0066, -0.0020,  0.0211, -0.0123
1491853064.8441379070,1491853064.8465540409, -0.1892, -0.0001, -0.0038, -0.0020,  0.0211, -0.0111
1491853064.8469328880,1491853064.8493659496, -0.1894, -0.0001, -0.0038, -0.0027,  0.0229, -0.0111
1491853064.8497450352,1491853064.8521759510, -0.1894, -0.0001, -0.0038, -0.0027,  0.0229, -0.0111
1491853064.8525540829,1491853064.8549859524, -0.1894, -0.0001, -0.0038, -0.0027,  0.0229, -0.0111
1491853064.8553640842,1491853064.8577890396, -0.1894, -0.0001, -0.0038, -0.0008,  0.0238, -0.0101
1491853064.8581659794,1491853064.8605949879, -0.1894, -0.0001, -0.0038, -0.0008,  0.0238, -0.0101
1491853064.8609719276,1491853064.8633959293, -0.1894, -0.0001, -0.0038, -0.0008,  0.0238, -0.0101
1491853064.8637731075,1491853064.8660960197, -0.1894, -0.0007, -0.0056, -0.0008,  0.0238, -0.0101
1491853064.8664669991,1491853064.8687629700, -0.1893, -0.0007, -0.0056,  0.0016,  0.0263, -0.0096
1491853064.8691360950,1491853064.8714430332, -0.1893, -0.0007, -0.0056,  0.0016,  0.0263, -0.0096
1491853064.8718130589,1491853064.8741250038, -0.1893, -0.0007, -0.0056,  0.0016,  0.0263, -0.0096
1491853064.8745050430,1491853064.8769259453, -0.1893, -0.0007, -0.0056,  0.0016,  0.0263, -0.0018
1491853064.8773040771,1491853064.8797330856, -0.1893, -0.0007, -0.0056,  0.0021,  0.0277, -0.0068
1491853064.8801119328,1491853064.8825349808, -0.1893, -0.0007, -0.0056,  0.0021,  0.0277, -0.0068
1491853064.8829109669,1491853064.8853440285, -0.1893, -0.0007, -0.0056,  0.0021,  0.0277, -0.0068
1491853064.8857209682,1491853064.8881459236, -0.1899, -0.0009, -0.0060,  0.0021,  0.0299, -0.0051
1491853064.8885231018,1491853064.8909471035, -0.1899, -0.0009, -0.0060,  0.0029,  0.0299, -0.0051
1491853064.8913280964,1491853064.8937599659, -0.1899, -0.0009, -0.0060,  0.0029,  0.0299, -0.0051
1491853064.8941481113,1491853064.8965709209, -0.1899, -0.0009, -0.0060,  0.0029,  0.0299, -0.0051
1491853064.8969480991,1491853064.8993749619, -0.1899, -0.0009, -0.0060,  0.0035,  0.0310, -0.0038
1491853064.8997540474,1491853064.9021849632, -0.1899, -0.0009, -0.0060,  0.0035,  0.0310, -0.0038
1491853064.9025630951,1491853064.9049959183, -0.1899, -0.0009, -0.0060,  0.0035,  0.0310, -0.0038
1491853064.9053730965,1491853064.9078030586, -0.1894, -0.0006, -0.0080,  0.0035,  0.0310, -0.0038
1491853064.9081799984,1491853064.9106140137, -0.1894, -0.0006, -0.0080,  0.0042,  0.0330, -0.0017
1491853064.9109940529,1491853064.9134171009, -0.1894, -0.0006, -0.0080,  0.0042,  0.0330, -0.0017
1491853064.9137949944,1491853064.9161510468, -0.1894, -0.0006, -0.0080,  0.0042,  0.0330, -0.0017
1491853064.9166219234,1491853064.9189250469, -0.1894, -0.0006, -0.0080,  0.0042,  0.0334,  0.0004
1491853064.9192950726,1491853064.9215960503, -0.1894, -0.0006, -0.0080,  0.0037,  0.0334,  0.0004
1491853064.9219679832,1491853064.9243230820, -0.1894, -0.0006, -0.0080,  0.0037,  0.0334,  0.0004
1491853064.9247019291,1491853064.9271309376, -0.1917, -0.0001, -0.0083,  0.0037,  0.0334,  0.0004
1491853064.9275069237,1491853064.9299340248, -0.1917, -0.0001, -0.0083,  0.0031,  0.0349,  0.0013
1491853064.9303119183,1491853064.9327399731, -0.1917, -0.0001, -0.0083,  0.0031,  0.0349,  0.0013
1491853064.9331190586,1491853064.9355530739, -0.1917, -0.0001, -0.0083,  0.0031,  0.0349,  0.0013
1491853064.9359290600,1491853064.9383580685, -0.1917, -0.0001, -0.0083,  0.0031,  0.0349,  0.0013
1491853064.9387359619,1491853064.9411649704, -0.1917, -0.0001, -0.0083,  0.0063,  0.0388,  0.0040
1491853064.9415440559,1491853064.9439740181, -0.1917, -0.0001, -0.0083,  0.0063,  0.0388,  0.0040
1491853064.9444100857,1491853064.9468410015, -0.1948, -0.0056, -0.0083,  0.0063,  0.0388,  0.0040
1491853064.9472188950,1491853064.9496428967, -0.1948, -0.0056, -0.0083,  0.0063,  0.0421,  0.0080
1491853064.9500200748,1491853064.9524459839, -0.1948, -0.0056, -0.0083,  0.0048,  0.0421,  0.0080
1491853064.9528250694,1491853064.9552700520, -0.1948, -0.0056, -0.0083,  0.0048,  0.0421,  0.0080
1491853064.9556479454,1491853064.9580719471, -0.1948, -0.0056, -0.0083,  0.0048,  0.0421,  0.0080
1491853064.9584488869,1491853064.9608809948, -0.1948, -0.0056, -0.0083, -0.0021,  0.0479,  0.0121
1491853064.9612610340,1491853064.9636859894, -0.1948, -0.0056, -0.0083, -0.0021,  0.0479,  0.0121
1491853064.9640729427,1491853064.9663739204, -0.1921, -0.0004, -0.0102, -0.0021,  0.0479,  0.0121
1491853064.9667439461,1491853064.9690430164, -0.1921, -0.0004, -0.0102, -0.0021,  0.0479,  0.0121
1491853064.9694108963,1491853064.9717109203, -0.1921, -0.0004, -0.0102,  0.0004,  0.0506,  0.0162
1491853064.9720790386,1491853064.9744029045, -0.1921, -0.0004, -0.0102,  0.0004,  0.0506,  0.0162
1491853064.9747779369,1491853064.9771931171, -0.1921, -0.0004, -0.0102,  0.0004,  0.0506,  0.0162
1491853064.9775669575,1491853064.9799699783, -0.1921, -0.0004, -0.0102,  0.0004,  0.0506,  0.0162
1491853064.9803431034,1491853064.9827580452, -0.1921, -0.0004, -0.0102,  0.0031,  0.0509,  0.0204
1491853064.9831330776,1491853064.9855470657, -0.1992, -0.0089, -0.0119,  0.0031,  0.0509,  0.0204
1491853064.9859220982,1491853064.9883329868, -0.1992, -0.0089, -0.0119,  0.0031,  0.0509,  0.0204
1491853064.9887080193,1491853064.9911170006, -0.1992, -0.0089, -0.0119,  0.0043,  0.0534,  0.0272
1491853064.9914920330,1491853064.9939019680, -0.1992, -0.0089, -0.0119,  0.0043,  0.0534,  0.0272
1491853064.9942829609,1491853064.9966700077, -0.1992, -0.0089, -0.0119,  0.0043,  0.0534,  0.0272
1491853064.9970450401,1491853064.9994359016, -0.1992, -0.0089, -0.0119,  0.0043,  0.0534,  0.0272
1491853064.9998099804,1491853065.0021939278, -0.1992, -0.0089, -0.0119,  0.0009,  0.0556,  0.0345
1491853065.0025689602,1491853065.0049860477, -0.1992, -0.0112, -0.0125,  0.0009,  0.0556,  0.0345
1491853065.0053620338,1491853065.0077850819, -0.2069, -0.0112, -0.0125,  0.0009,  0.0556,  0.0345
1491853065.0081639290,1491853065.0105919838, -0.2069, -0.0112, -0.0125,  0.0009,  0.0556,  0.0345
1491853065.0109679699,1491853065.0134019852, -0.2069, -0.0112, -0.0125, -0.0085,  0.0549,  0.0384
1491853065.0137789249,1491853065.0161039829, -0.2069, -0.0112, -0.0125, -0.0085,  0.0549,  0.0384
1491853065.0164740086,1491853065.0187799931, -0.2069, -0.0112, -0.0125, -0.0085,  0.0549,  0.0384
1491853065.0191500187,1491853065.0214509964, -0.2069, -0.0112, -0.0125, -0.0085,  0.0549,  0.0424
1491853065.0218219757,1491853065.0241360664, -0.2069, -0.0112, -0.0164, -0.0169,  0.0569,  0.0424
1491853065.0245110989,1491853065.0269351006, -0.2477, -0.0243, -0.0164, -0.0169,  0.0569,  0.0424
1491853065.0273098946,1491853065.0297279358, -0.2477, -0.0243, -0.0164, -0.0169,  0.0569,  0.0424
1491853065.0301039219,1491853065.0325291157, -0.2477, -0.0243, -0.0164, -0.0259,  0.0519,  0.0591
1491853065.0330140591,1491853065.0354859829, -0.2477, -0.0243, -0.0164, -0.0259,  0.0519,  0.0591
1491853065.0358619690,1491853065.0382850170, -0.2477, -0.0243, -0.0164, -0.0259,  0.0519,  0.0591
1491853065.0386610031,1491853065.0410869122, -0.2477, -0.0243, -0.0164, -0.0259,  0.0519,  0.0591
1491853065.0414640903,1491853065.0438930988, -0.2477, -0.0243, -0.0008, -0.0164,  0.0505,  0.0793
1491853065.0442700386,1491853065.0466959476, -0.2843, -0.0722, -0.0011, -0.0164,  0.0505,  0.0793
1491853065.0470719337,1491853065.0495040417, -0.2843, -0.0722, -0.0011, -0.0164,  0.0505,  0.0793
1491853065.0498819351,1491853065.0523049831, -0.2843, -0.0722, -0.0011, -0.0164,  0.0505,  0.1055
1491853065.0526831150,1491853065.0551149845, -0.2843, -0.0722, -0.0011, -0.0244,  0.0782,  0.1055
1491853065.0554909706,1491853065.0579209328, -0.2843, -0.0722, -0.0011, -0.0244,  0.0782,  0.1055
1491853065.0582981110,1491853065.0607259274, -0.2843, -0.0722, -0.0011, -0.0244,  0.0782,  0.1055
1491853065.0611059666,1491853065.0635321140, -0.2843, -0.0722, -0.0011, -0.0320,  0.0814,  0.1222
1491853065.0639090538,1491853065.0662329197, -0.2526, -0.0237,  0.0022, -0.0320,  0.0814,  0.1222
1491853065.0666029453,1491853065.0688970089, -0.2526, -0.0237,  0.0022, -0.0320,  0.0814,  0.1222
1491853065.0692660809,1491853065.0715711117, -0.2526, -0.0237,  0.0022, -0.0320,  0.0814,  0.1222
1491853065.0719399452,1491853065.0742950439, -0.2526, -0.0237,  0.0022, -0.0329,  0.0815,  0.1322
1491853065.0746660233,1491853065.0769639015, -0.2526, -0.0237,  0.0022, -0.0329,  0.0815,  0.1322
1491853065.0773329735,1491853065.0796360970, -0.2526, -0.0237,  0.0022, -0.0329,  0.0815,  0.1322
1491853065.0800049305,1491853065.0822989941, -0.2526, -0.0237,  0.0022, -0.0329,  0.0815,  0.1322
1491853065.0826671124,1491853065.0850760937, -0.2377, -0.0052,  0.0227, -0.0269,  0.0826,  0.1405
1491853065.0854539871,1491853065.0878860950, -0.2377, -0.0052,  0.0227, -0.0269,  0.0826,  0.1405
1491853065.0882649422,1491853065.0906889439, -0.2377, -0.0052,  0.0227, -0.0269,  0.0826,  0.1405
1491853065.0910658836,1491853065.0934929848, -0.2377, -0.0052,  0.0227, -0.0269,  0.0904,  0.1331
1491853065.0938699245,1491853065.0963029861, -0.2377, -0.0052,  0.0227, -0.0139,  0.0913,  0.1331
1491853065.0966811180,1491853065.0991001129, -0.2377, -0.0052,  0.0227, -0.0139,  0.0913,  0.1331
1491853065.0994760990,1491853065.1019051075, -0.2377, -0.0052,  0.0227, -0.0139,  0.0913,  0.1331
1491853065.1022830009,1491853065.1047210693, -0.2007, -0.0735,  0.0227, -0.0181,  0.0989,  0.1138
1491853065.1050999165,1491853065.1075239182, -0.2007, -0.0735,  0.0227, -0.0181,  0.0989,  0.1138
1491853065.1079039574,1491853065.1103351116, -0.2007, -0.0735,  0.0227, -0.0181,  0.0989,  0.1138
1491853065.1107120514,1491853065.1131350994, -0.2007, -0.0735,  0.0227, -0.0181,  0.0989,  0.1138
1491853065.1135120392,1491853065.1158590317, -0.2007, -0.0735,  0.0227, -0.0385,  0.0891,  0.1039
1491853065.1162309647,1491853065.1185290813, -0.2007, -0.0735,  0.0227, -0.0385,  0.0891,  0.1039
1491853065.1188991070,1491853065.1211960316, -0.2007, -0.0735,  0.0227, -0.0385,  0.0891,  0.1039
1491853065.1215660572,1491853065.1238720417, -0.2007, -0.0519,  0.0151, -0.0385,  0.0891,  0.0882
1491853065.1242480278,1491853065.1266748905, -0.1658, -0.0519,  0.0151, -0.0386,  0.0742,  0.0879
1491853065.1270499229,1491853065.1294729710, -0.1658, -0.0519,  0.0151, -0.0386,  0.0742,  0.0879
1491853065.1298511028,1491853065.1322770119, -0.1658, -0.0519,  0.0151, -0.0386,  0.0742,  0.0879
1491853065.1326529980,1491853065.1350870132, -0.1658, -0.0519,  0.0151, -0.0464,  0.0507,  0.0655
1491853065.1354629993,1491853065.1378951073, -0.1658, -0.0519,  0.0151, -0.0421,  0.0507,  0.0655
1491853065.1382720470,1491853065.1406960487, -0.1658, -0.0519,  0.0151, -0.0421,  0.0507,  0.0655
1491853065.1410729885,1491853065.1434960365, -0.1658, -0.0831,  0.0204, -0.0421,  0.0507,  0.0655
1491853065.1438720226,1491853065.1463088989, -0.1542, -0.0782,  0.0204, -0.0506,  0.0311,  0.0467
1491853065.1466839314,1491853065.1491060257, -0.1542, -0.0782,  0.0204, -0.0506,  0.0311,  0.0467
1491853065.1495931149,1491853065.1520209312, -0.1542, -0.0782,  0.0204, -0.0506,  0.0311,  0.0467
1491853065.1523969173,1491853065.1548359394, -0.1542, -0.0782,  0.0204, -0.0506,  0.0311,  0.0311
1491853065.1552059650,1491853065.1575078964, -0.1542, -0.0782,  0.0204, -0.0582,  0.0175,  0.0291
1491853065.1578750610,1491853065.1601779461, -0.1542, -0.0782,  0.0204, -0.0582,  0.0175,  0.0291
1491853065.1605460644,1491853065.1628448963, -0.1542, -0.0782,  0.0126, -0.0582,  0.0175,  0.0291
1491853065.1632139683,1491853065.1656041145, -0.1342, -0.0782,  0.0129, -0.0582,  0.0019,  0.0090
1491853065.1659810543,1491853065.1684129238, -0.1342, -0.0782,  0.0129, -0.0646,  0.0040,  0.0090
1491853065.1687920094,1491853065.1712141037, -0.1342, -0.0782,  0.0129, -0.0646,  0.0040,  0.0090
1491853065.1715910435,1491853065.1740589142, -0.1342, -0.0782,  0.0129, -0.0646,  0.0040,  0.0090
1491853065.1744370461,1491853065.1768670082, -0.1342, -0.0782,  0.0129, -0.0679, -0.0102, -0.0144
1491853065.1772429943,1491853065.1796669960, -0.1342, -0.0782,  0.0129, -0.0679, -0.0102, -0.0144
1491853065.1800420284,1491853065.1824710369, -0.1342, -0.0782,  0.0129, -0.0679, -0.0102, -0.0144
1491853065.1828489304,1491853065.1852889061, -0.1313, -0.0766,  0.0135, -0.0679, -0.0102, -0.0144
1491853065.1856639385,1491853065.1880910397, -0.1313, -0.0766,  0.0135, -0.0684, -0.0235, -0.0375
1491853065.1884679794,1491853065.1908950806, -0.1313, -0.0766,  0.0135, -0.0684, -0.0235, -0.0375
1491853065.1912710667,1491853065.1936979294, -0.1313, -0.0766,  0.0135, -0.0684, -0.0235, -0.0375
1491853065.1940820217,1491853065.1963849068, -0.1313, -0.0766,  0.0135, -0.0684, -0.0313, -0.0590
1491853065.1967539787,1491853065.1990559101, -0.1313, -0.0766,  0.0135, -0.0656, -0.0329, -0.0590
1491853065.1994230747,1491853065.2017209530, -0.1313, -0.0766,  0.0135, -0.0656, -0.0329, -0.0590
1491853065.2020890713,1491853065.2044520378, -0.1355, -0.0714,  0.0169, -0.0656, -0.0329, -0.0590
1491853065.2048199177,1491853065.2071189880, -0.1355, -0.0714,  0.0169, -0.0578, -0.0402, -0.0793
1491853065.2074880600,1491853065.2097909451, -0.1355, -0.0714,  0.0169, -0.0598, -0.0402, -0.0793
1491853065.2101600170,1491853065.2124640942, -0.1355, -0.0714,  0.0169, -0.0598, -0.0402, -0.0793
1491853065.2128310204,1491853065.2151379585, -0.1355, -0.0714,  0.0169, -0.0598, -0.0402, -0.0793
1491853065.2155060768,1491853065.2178089619, -0.1355, -0.0714,  0.0169, -0.0504, -0.0467, -0.0995
1491853065.2181789875,1491853065.2204830647, -0.1355, -0.0714,  0.0169, -0.0504, -0.0467, -0.0995
1491853065.2208530903,1491853065.2231490612, -0.1355, -0.0644,  0.0150, -0.0504, -0.0467, -0.0995
1491853065.2235178947,1491853065.2259271145, -0.1404, -0.0644,  0.0150, -0.0504, -0.0467, -0.0995
1491853065.2263050079,1491853065.2287280560, -0.1404, -0.0644,  0.0150, -0.0391, -0.0529, -0.1187
1491853065.2291040421,1491853065.2315309048, -0.1404, -0.0644,  0.0150, -0.0391, -0.0529, -0.1187
1491853065.2319080830,1491853065.2343440056, -0.1404, -0.0644,  0.0150, -0.0391, -0.0529, -0.1187
1491853065.2347218990,1491853065.2371439934, -0.1404, -0.0644,  0.0150, -0.0391, -0.0529, -0.1343
1491853065.2375199795,1491853065.2399439812, -0.1404, -0.0644,  0.0150, -0.0278, -0.0587, -0.1366
1491853065.2403209209,1491853065.2427520752, -0.1404, -0.0597,  0.0150, -0.0278, -0.0587, -0.1366
1491853065.2431280613,1491853065.2455608845, -0.1475, -0.0597,  0.0150, -0.0278, -0.0587, -0.1366
1491853065.2459349632,1491853065.2483611107, -0.1475, -0.0597,  0.0150, -0.0195, -0.0634, -0.1534
1491853065.2487380505,1491853065.2511589527, -0.1475, -0.0597,  0.0150, -0.0195, -0.0634, -0.1534
1491853065.2515339851,1491853065.2539589405, -0.1475, -0.0597,  0.0150, -0.0195, -0.0634, -0.1534
1491853065.2543869019,1491853065.2568199635, -0.1475, -0.0597,  0.0150, -0.0195, -0.0634, -0.1534
1491853065.2571949959,1491853065.2596180439, -0.1475, -0.0597,  0.0150, -0.0137, -0.0683, -0.1704
1491853065.2599930763,1491853065.2624208927, -0.1475, -0.0597,  0.0144, -0.0137, -0.0683, -0.1704
1491853065.2627990246,1491853065.2652070522, -0.1602, -0.0580,  0.0144, -0.0137, -0.0683, -0.1704
1491853065.2656819820,1491853065.2679839134, -0.1602, -0.0580,  0.0144, -0.0137, -0.0683, -0.1861
1491853065.2683539391,1491853065.2706599236, -0.1602, -0.0580,  0.0144, -0.0096, -0.0739, -0.1868
1491853065.2710299492,1491853065.2733330727, -0.1602, -0.0580,  0.0144, -0.0096, -0.0739, -0.1868
1491853065.2737030983,1491853065.2761240005, -0.1602, -0.0580,  0.0144, -0.0096, -0.0739, -0.1868
1491853065.2765018940,1491853065.2789309025, -0.1602, -0.0580,  0.0144, -0.0096, -0.0802, -0.2020
1491853065.2793099880,1491853065.2817330360, -0.1602, -0.0580,  0.0144, -0.0088, -0.0802, -0.2020
1491853065.2821099758,1491853065.2845458984, -0.1724, -0.0613,  0.0132, -0.0088, -0.0802, -0.2020
1491853065.2849240303,1491853065.2873489857, -0.1724, -0.0613,  0.0132, -0.0088, -0.0802, -0.2020
1491853065.2877271175,1491853065.2901570797, -0.1724, -0.0613,  0.0132, -0.0115, -0.0861, -0.2170
1491853065.2905330658,1491853065.2929630280, -0.1724, -0.0613,  0.0132, -0.0115, -0.0861, -0.2170
1491853065.2933399677,1491853065.2957749367, -0.1724, -0.0613,  0.0132, -0.0115, -0.0861, -0.2170
1491853065.2961521149,1491853065.2985761166, -0.1724, -0.0613,  0.0132, -0.0115, -0.0861, -0.2170
1491853065.2989521027,1491853065.3013811111, -0.1724, -0.0613,  0.0132, -0.0153, -0.0918, -0.2332
1491853065.3017580509,1491853065.3041849136, -0.1805, -0.0656,  0.0133, -0.0153, -0.0918, -0.2332
1491853065.3045589924,1491853065.3069798946, -0.1805, -0.0656,  0.0133, -0.0153, -0.0918, -0.2332
1491853065.3073558807,1491853065.3097860813, -0.1805, -0.0656,  0.0133, -0.0153, -0.0977, -0.2486
1491853065.3101599216,1491853065.3125851154, -0.1805, -0.0656,  0.0133, -0.0204, -0.0977, -0.2486
1491853065.3129620552,1491853065.3153440952, -0.1805, -0.0656,  0.0133, -0.0204, -0.0977, -0.2486
1491853065.3157138824,1491853065.3180060387, -0.1805, -0.0656,  0.0133, -0.0204, -0.0977, -0.2486
1491853065.3183760643,1491853065.3206748962, -0.1805, -0.0656,  0.0133, -0.0262, -0.1045, -0.2628
1491853065.3210420609,1491853065.3233470917, -0.1912, -0.0688,  0.0085, -0.0262, -0.1045, -0.2628
1491853065.3237159252,1491853065.3262460232, -0.1912, -0.0688,  0.0085, -0.0262, -0.1045, -0.2628
1491853065.3266160488,1491853065.3289129734, -0.1912, -0.0688,  0.0085, -0.0262, -0.1045, -0.2628
1491853065.3292820454,1491853065.3315839767, -0.1912, -0.0688,  0.0085, -0.0325, -0.1102, -0.2740
1491853065.3319540024,1491853065.3343191147, -0.1912, -0.0688,  0.0085, -0.0325, -0.1102, -0.2740
1491853065.3346970081,1491853065.3371219635, -0.1912, -0.0688,  0.0085, -0.0325, -0.1102, -0.2740
1491853065.3375000954,1491853065.3399190903, -0.1912, -0.0688,  0.0085, -0.0325, -0.1102, -0.2818
1491853065.3402950764,1491853065.3427178860, -0.2068, -0.0622,  0.0010, -0.0366, -0.1147, -0.2829
1491853065.3430950642,1491853065.3455400467, -0.2068, -0.0622,  0.0010, -0.0366, -0.1147, -0.2829
1491853065.3459200859,1491853065.3483469486, -0.2068, -0.0622,  0.0010, -0.0366, -0.1147, -0.2829
1491853065.3487260342,1491853065.3511469364, -0.2068, -0.0622,  0.0010, -0.0444, -0.1166, -0.2912
1491853065.3515269756,1491853065.3539550304, -0.2068, -0.0622,  0.0010, -0.0405, -0.1166, -0.2912
1491853065.3543839455,1491853065.3568038940, -0.2068, -0.0622,  0.0010, -0.0405, -0.1166, -0.2912
1491853065.3571820259,1491853065.3596129417, -0.2068, -0.0622,  0.0010, -0.0405, -0.1166, -0.2912
1491853065.3599910736,1491853065.3624138832, -0.2183, -0.0546, -0.0040, -0.0451, -0.1183, -0.2994
1491853065.3627910614,1491853065.3652629852, -0.2183, -0.0546, -0.0040, -0.0451, -0.1183, -0.2994
1491853065.3656411171,1491853065.3680739403, -0.2183, -0.0546, -0.0040, -0.0451, -0.1183, -0.2994
1491853065.3684499264,1491853065.3708739281, -0.2183, -0.0546, -0.0040, -0.0451, -0.1183, -0.3072
1491853065.3712530136,1491853065.3736729622, -0.2183, -0.0546, -0.0040, -0.0463, -0.1169, -0.3055
1491853065.3740599155,1491853065.3763558865, -0.2183, -0.0546, -0.0040, -0.0463, -0.1169, -0.3055
1491853065.3767249584,1491853065.3790240288, -0.2183, -0.0546, -0.0040, -0.0463, -0.1169, -0.3055
1491853065.3793931007,1491853065.3816978931, -0.2261, -0.0511, -0.0094, -0.0463, -0.1169, -0.3083
1491853065.3821759224,1491853065.3845150471, -0.2251, -0.0511, -0.0094, -0.0467, -0.1153, -0.3083
1491853065.3848938942,1491853065.3873240948, -0.2251, -0.0511, -0.0094, -0.0467, -0.1153, -0.3083
1491853065.3877010345,1491853065.3901309967, -0.2251, -0.0511, -0.0094, -0.0467, -0.1153, -0.3083
1491853065.3905100822,1491853065.3929369450, -0.2251, -0.0511, -0.0094, -0.0474, -0.1142, -0.3088
1491853065.3933169842,1491853065.3957529068, -0.2251, -0.0511, -0.0094, -0.0474, -0.1142, -0.3088
1491853065.3961310387,1491853065.3985650539, -0.2251, -0.0511, -0.0094, -0.0474, -0.1142, -0.3088
1491853065.3989410400,1491853065.4013679028, -0.2251, -0.0358, -0.0131, -0.0474, -0.1142, -0.3088
1491853065.4017450809,1491853065.4041750431, -0.2414, -0.0358, -0.0131, -0.0490, -0.1111, -0.3062
1491853065.4045519829,1491853065.4069819450, -0.2414, -0.0358, -0.0131, -0.0490, -0.1111, -0.3062
1491853065.4073579311,1491853065.4097850323, -0.2414, -0.0358, -0.0131, -0.0490, -0.1111, -0.3062
1491853065.4101610184,1491853065.4125940800, -0.2414, -0.0358, -0.0131, -0.0490, -0.1033, -0.3018
1491853065.4129719734,1491853065.4154000282, -0.2414, -0.0358, -0.0131, -0.0500, -0.1041, -0.3018
1491853065.4157769680,1491853065.4181950092, -0.2414, -0.0358, -0.0131, -0.0500, -0.1041, -0.3018
1491853065.4185709953,1491853065.4210031033, -0.2414, -0.0202, -0.0176, -0.0500, -0.1041, -0.3018
1491853065.4213809967,1491853065.4238069057, -0.2428, -0.0217, -0.0176, -0.0484, -0.0959, -0.2939
1491853065.4241900444,1491853065.4264969826, -0.2428, -0.0217, -0.0176, -0.0484, -0.0959, -0.2939
1491853065.4268670082,1491853065.4291670322, -0.2428, -0.0217, -0.0176, -0.0484, -0.0959, -0.2939
1491853065.4295349121,1491853065.4318330288, -0.2428, -0.0217, -0.0176, -0.0484, -0.0959, -0.2939
1491853065.4322009087,1491853065.4345130920, -0.2428, -0.0217, -0.0176, -0.0468, -0.0876, -0.2814
1491853065.4348809719,1491853065.4371829033, -0.2428, -0.0217, -0.0176, -0.0468, -0.0876, -0.2814
1491853065.4375529289,1491853065.4398438931, -0.2428, -0.0217, -0.0176, -0.0468, -0.0876, -0.2814
1491853065.4402139187,1491853065.4425110817, -0.2386, -0.0097, -0.0233, -0.0468, -0.0876, -0.2814
1491853065.4428799152,1491853065.4452900887, -0.2386, -0.0097, -0.0233, -0.0491, -0.0807, -0.2650
1491853065.4456660748,1491853065.4481010437, -0.2386, -0.0097, -0.0233, -0.0491, -0.0807, -0.2650
1491853065.4484789371,1491853065.4509100914, -0.2386, -0.0097, -0.0233, -0.0491, -0.0807, -0.2650
1491853065.4512879848,1491853065.4537138939, -0.2386, -0.0097, -0.0233, -0.0491, -0.0729, -0.2470
1491853065.4540989399,1491853065.4565300941, -0.2386, -0.0097, -0.0233, -0.0542, -0.0733, -0.2470
1491853065.4569079876,1491853065.4593329430, -0.2386, -0.0097, -0.0233, -0.0542, -0.0733, -0.2470
1491853065.4597110748,1491853065.4621388912, -0.2153,  0.0151, -0.0240, -0.0542, -0.0733, -0.2470
1491853065.4625160694,1491853065.4649589062, -0.2153,  0.0151, -0.0240, -0.0545, -0.0650, -0.2279
1491853065.4653370380,1491853065.4677600861, -0.2153,  0.0151, -0.0240, -0.0545, -0.0650, -0.2279
1491853065.4681351185,1491853065.4705710411, -0.2153,  0.0151, -0.0240, -0.0545, -0.0650, -0.2279
1491853065.4709489346,1491853065.4733719826, -0.2153,  0.0151, -0.0240, -0.0545, -0.0650, -0.2279
1491853065.4737470150,1491853065.4760789871, -0.2153,  0.0151, -0.0240, -0.0490, -0.0582, -0.2077
1491853065.4764490128,1491853065.4787580967, -0.2153,  0.0151, -0.0240, -0.0490, -0.0582, -0.2077
1491853065.4791269302,1491853065.4814269543, -0.1997,  0.0356, -0.0305, -0.0490, -0.0582, -0.2077
1491853065.4817960262,1491853065.4841160774, -0.1997,  0.0356, -0.0305, -0.0490, -0.0582, -0.1843
1491853065.4844949245,1491853065.4869310856, -0.1997,  0.0356, -0.0305, -0.0420, -0.0504, -0.1848
1491853065.4873070717,1491853065.4897370338, -0.1997,  0.0356, -0.0305, -0.0420, -0.0504, -0.1848
1491853065.4901130199,1491853065.4925420284, -0.1997,  0.0356, -0.0305, -0.0420, -0.0504, -0.1848
1491853065.4929180145,1491853065.4953579903, -0.1997,  0.0356, -0.0305, -0.0391, -0.0415, -0.1571
1491853065.4958369732,1491853065.4982669353, -0.1997,  0.0356, -0.0305, -0.0391, -0.0415, -0.1571
1491853065.4986429214,1491853065.5010769367, -0.1877,  0.0439, -0.0367, -0.0391, -0.0415, -0.1571
1491853065.5014550686,1491853065.5038809776, -0.1877,  0.0439, -0.0367, -0.0391, -0.0415, -0.1571
1491853065.5042669773,1491853065.5066869259, -0.1877,  0.0439, -0.0367, -0.0362, -0.0306, -0.1278
1491853065.5070629120,1491853065.5094959736, -0.1877,  0.0439, -0.0367, -0.0362, -0.0306, -0.1278
1491853065.5098729134,1491853065.5123009682, -0.1877,  0.0439, -0.0367, -0.0362, -0.0306, -0.1278
1491853065.5126769543,1491853065.5151140690, -0.1877,  0.0439, -0.0367, -0.0362, -0.0306, -0.0969
1491853065.5154900551,1491853065.5179131031, -0.1877,  0.0439, -0.0367, -0.0329, -0.0192, -0.0969
1491853065.5182909966,1491853065.5207159519, -0.1816,  0.0537, -0.0386, -0.0329, -0.0192, -0.0969
1491853065.5210919380,1491853065.5235168934, -0.1816,  0.0537, -0.0386, -0.0329, -0.0192, -0.0969
1491853065.5238919258,1491853065.5262160301, -0.1816,  0.0537, -0.0386, -0.0334, -0.0083, -0.0650
1491853065.5265839100,1491853065.5288879871, -0.1816,  0.0537, -0.0386, -0.0334, -0.0083, -0.0650
1491853065.5292570591,1491853065.5315580368, -0.1816,  0.0537, -0.0386, -0.0334, -0.0083, -0.0650
1491853065.5319271088,1491853065.5342969894, -0.1816,  0.0537, -0.0386, -0.0334, -0.0083, -0.0650
1491853065.5346748829,1491853065.5371129513, -0.1816,  0.0537, -0.0386, -0.0297,  0.0022, -0.0340
1491853065.5374910831,1491853065.5399210453, -0.1816,  0.0615, -0.0288, -0.0297,  0.0022, -0.0340
1491853065.5402970314,1491853065.5427269936, -0.1789,  0.0566, -0.0288, -0.0297,  0.0022, -0.0340
1491853065.5431039333,1491853065.5455460548, -0.1789,  0.0566, -0.0288, -0.0297,  0.0022, -0.0340
1491853065.5459249020,1491853065.5483500957, -0.1789,  0.0566, -0.0288, -0.0228,  0.0110, -0.0038
1491853065.5487279892,1491853065.5511569977, -0.1789,  0.0566, -0.0288, -0.0228,  0.0110, -0.0038
1491853065.5515339375,1491853065.5539710522, -0.1789,  0.0566, -0.0288, -0.0228,  0.0110, -0.0038
1491853065.5544009209,1491853065.5568299294, -0.1789,  0.0566, -0.0288, -0.0150,  0.0193,  0.0281
1491853065.5572059155,1491853065.5596361160, -0.1789,  0.0410, -0.0270, -0.0156,  0.0193,  0.0281
1491853065.5600109100,1491853065.5624361038, -0.1789,  0.0449, -0.0270, -0.0156,  0.0193,  0.0281
1491853065.5628120899,1491853065.5652940273, -0.1789,  0.0449, -0.0270, -0.0156,  0.0193,  0.0281
1491853065.5656700134,1491853065.5681009293, -0.1789,  0.0449, -0.0270, -0.0120,  0.0247,  0.0585
1491853065.5684781075,1491853065.5709040165, -0.1789,  0.0449, -0.0270, -0.0120,  0.0247,  0.0585
1491853065.5712800026,1491853065.5737090111, -0.1789,  0.0449, -0.0270, -0.0120,  0.0247,  0.0585
1491853065.5740969181,1491853065.5764009953, -0.1789,  0.0449, -0.0270, -0.0120,  0.0247,  0.0585
1491853065.5767710209,1491853065.5790700912, -0.1789,  0.0449, -0.0192, -0.0105,  0.0286,  0.0846
1491853065.5794389248,1491853065.5817420483, -0.1823,  0.0459, -0.0206, -0.0105,  0.0286,  0.0846
1491853065.5821089745,1491853065.5844600201, -0.1823,  0.0459, -0.0206, -0.0105,  0.0286,  0.0846
1491853065.5848290920,1491853065.5871219635, -0.1823,  0.0459, -0.0206, -0.0105,  0.0286,  0.1063
1491853065.5874919891,1491853065.5897998810, -0.1823,  0.0459, -0.0206, -0.0057,  0.0323,  0.1063
1491853065.5901730061,1491853065.5924730301, -0.1823,  0.0459, -0.0206, -0.0057,  0.0323,  0.1063
1491853065.5928430557,1491853065.5952060223, -0.1823,  0.0459, -0.0206, -0.0057,  0.0323,  0.1063
1491853065.5955839157,1491853065.5980169773, -0.1823,  0.0459, -0.0206, -0.0057,  0.0387,  0.1238
1491853065.5983951092,1491853065.6008241177, -0.1951,  0.0477, -0.0123, -0.0042,  0.0387,  0.1238
1491853065.6012029648,1491853065.6036379337, -0.1951,  0.0477, -0.0123, -0.0042,  0.0387,  0.1238
1491853065.6040530205,1491853065.6064789295, -0.1951,  0.0477, -0.0123, -0.0042,  0.0387,  0.1238
1491853065.6068570614,1491853065.6092810631, -0.1951,  0.0477, -0.0123, -0.0065,  0.0482,  0.1407
1491853065.6096580029,1491853065.6120951176, -0.1951,  0.0477, -0.0123, -0.0065,  0.0482,  0.1407
1491853065.6125900745,1491853065.6150629520, -0.1951,  0.0477, -0.0123, -0.0065,  0.0482,  0.1407
1491853065.6154420376,1491853065.6178700924, -0.1951,  0.0477, -0.0123, -0.0065,  0.0482,  0.1485
1491853065.6182470322,1491853065.6206729412, -0.3626, -0.0640, -0.0251,  0.0088,  0.0531,  0.1561
1491853065.6210520267,1491853065.6234779358, -0.3626, -0.0640, -0.0251,  0.0088,  0.0531,  0.1561
1491853065.6238551140,1491853065.6263000965, -0.3626, -0.0640, -0.0251,  0.0088,  0.0531,  0.1561
1491853065.6266770363,1491853065.6291089058, -0.3626, -0.0640, -0.0251,  0.0964,  0.0167,  0.2026
1491853065.6294870377,1491853065.6319110394, -0.3626, -0.0640, -0.0251,  0.0964,  0.0167,  0.2026
1491853065.6322870255,1491853065.6346979141, -0.3626, -0.0640, -0.0251,  0.0964,  0.0167,  0.2026
1491853065.6350669861,1491853065.6373689175, -0.3626, -0.0640, -0.0251,  0.0964,  0.0167,  0.2026
1491853065.6377370358,1491853065.6400370598, -0.0697, -0.1617,  0.0457,  0.1310,  0.0737,  0.1799
1491853065.6404049397,1491853065.6427109241, -0.0697, -0.1617,  0.0457,  0.1310,  0.0737,  0.1799
1491853065.6430809498,1491853065.6454999447, -0.0697, -0.1617,  0.0457,  0.1310,  0.0737,  0.1799
1491853065.6458759308,1491853065.6483099461, -0.0697, -0.1617,  0.0457,  0.1310,  0.0737,  0.1799
1491853065.6486868858,1491853065.6511099339, -0.0697, -0.1617,  0.0457,  0.0616,  0.0552,  0.1984
1491853065.6514859200,1491853065.6539158821, -0.0697, -0.1617,  0.0457,  0.0616,  0.0552,  0.1984
1491853065.6542971134,1491853065.6567349434, -0.0697, -0.1617,  0.0457,  0.0616,  0.0552,  0.1984
1491853065.6571118832,1491853065.6595389843, -0.2186, -0.0898,  0.0533,  0.0616,  0.0317,  0.3117
1491853065.6599149704,1491853065.6623361111, -0.2186, -0.0898,  0.0533,  0.0178,  0.0364,  0.3117
1491853065.6627130508,1491853065.6651580334, -0.2186, -0.0898,  0.0533,  0.0178,  0.0364,  0.3117
1491853065.6655340195,1491853065.6679620743, -0.2186, -0.0898,  0.0533,  0.0178,  0.0364,  0.3117
1491853065.6683390141,1491853065.6707758904, -0.2186, -0.0898,  0.0533, -0.0303,  0.0358,  0.3307
1491853065.6711509228,1491853065.6735780239, -0.2186, -0.0898,  0.0533, -0.0303,  0.0358,  0.3307
1491853065.6739571095,1491853065.6763899326, -0.2186, -0.0898,  0.0533, -0.0303,  0.0358,  0.3307
1491853065.6767671108,1491853065.6791939735, -0.2655,  0.0889, -0.0256, -0.0303,  0.0358,  0.3307
1491853065.6795699596,1491853065.6819970608, -0.2618,  0.0889, -0.0256, -0.0079, -0.0036,  0.2722
1491853065.6823749542,1491853065.6847860813, -0.2618,  0.0889, -0.0256, -0.0079, -0.0036,  0.2722
1491853065.6851561069,1491853065.6874620914, -0.2618,  0.0889, -0.0256, -0.0079, -0.0036,  0.2722
1491853065.6878321171,1491853065.6901350021, -0.2618,  0.0889, -0.0256, -0.0079, -0.0036,  0.2238
1491853065.6905050278,1491853065.6928091049, -0.2618,  0.0889, -0.0256,  0.0081,  0.0168,  0.2238
1491853065.6931779385,1491853065.6954860687, -0.2618,  0.0889, -0.0256,  0.0081,  0.0168,  0.2238
1491853065.6958549023,1491853065.6981480122, -0.2618,  0.0889, -0.0426,  0.0081,  0.0168,  0.2238
1491853065.6985180378,1491853065.7008249760, -0.2333,  0.0256, -0.0426,  0.0237,  0.0299,  0.2059
1491853065.7011909485,1491853065.7034869194, -0.2333,  0.0256, -0.0426,  0.0296,  0.0299,  0.2059
1491853065.7038550377,1491853065.7063150406, -0.2333,  0.0256, -0.0426,  0.0296,  0.0299,  0.2059
1491853065.7066910267,1491853065.7091250420, -0.2333,  0.0256, -0.0426,  0.0296,  0.0299,  0.2059
1491853065.7095029354,1491853065.7119250298, -0.2333,  0.0256, -0.0426,  0.0496,  0.0295,  0.1872
1491853065.7123019695,1491853065.7147469521, -0.2333,  0.0256, -0.0426,  0.0496,  0.0295,  0.1872
1491853065.7151229382,1491853065.7175490856, -0.2333,  0.0256, -0.0426,  0.0496,  0.0295,  0.1872
1491853065.7179250717,1491853065.7203528881, -0.1762, -0.0253,  0.0155,  0.0496,  0.0295,  0.1872
1491853065.7207300663,1491853065.7231590748, -0.1762, -0.0253,  0.0155,  0.0356,  0.0210,  0.1777
1491853065.7235350609,1491853065.7259728909, -0.1762, -0.0253,  0.0155,  0.0356,  0.0210,  0.1777
1491853065.7263479233,1491853065.7287778854, -0.1762, -0.0253,  0.0155,  0.0356,  0.0210,  0.1777
1491853065.7292609215,1491853065.7316889763, -0.1762, -0.0253,  0.0155,  0.0356,  0.0129,  0.1689
1491853065.7320649624,1491853065.7344849110, -0.1762, -0.0253,  0.0155,  0.0133,  0.0129,  0.1689
1491853065.7348549366,1491853065.7371621132, -0.1762, -0.0253,  0.0155,  0.0133,  0.0129,  0.1689
1491853065.7375299931,1491853065.7398281097, -0.1774, -0.0225,  0.0327,  0.0133,  0.0129,  0.1689
1491853065.7401969433,1491853065.7424960136, -0.1774, -0.0225,  0.0327, -0.0156,  0.0071,  0.1600
1491853065.7428650856,1491853065.7452929020, -0.1774, -0.0225,  0.0327, -0.0156,  0.0071,  0.1600
1491853065.7456710339,1491853065.7480978966, -0.1774, -0.0225,  0.0327, -0.0156,  0.0071,  0.1600
1491853065.7484769821,1491853065.7509050369, -0.1774, -0.0225,  0.0327, -0.0156,  0.0071,  0.1600
1491853065.7512838840,1491853065.7537100315, -0.1774, -0.0225,  0.0327, -0.0444,  0.0078,  0.1521
1491853065.7540969849,1491853065.7565169334, -0.1774, -0.0225,  0.0327, -0.0444,  0.0078,  0.1521
1491853065.7568929195,1491853065.7593250275, -0.1862,  0.0015,  0.0235, -0.0444,  0.0078,  0.1521
1491853065.7597029209,1491853065.7621240616, -0.1862,  0.0015,  0.0235, -0.0444,  0.0078,  0.1418
1491853065.7625041008,1491853065.7649409771, -0.1862,  0.0015,  0.0235, -0.0526,  0.0145,  0.1418
1491853065.7653179169,1491853065.7677519321, -0.1862,  0.0015,  0.0235, -0.0526,  0.0145,  0.1418
1491853065.7681291103,1491853065.7705581188, -0.1862,  0.0015,  0.0235, -0.0526,  0.0145,  0.1418
1491853065.7709360123,1491853065.7733569145, -0.1862,  0.0015,  0.0235, -0.0440,  0.0219,  0.1334
1491853065.7737340927,1491853065.7760720253, -0.1862,  0.0015,  0.0235, -0.0440,  0.0219,  0.1334
1491853065.7764420509,1491853065.7787408829, -0.1842,  0.0099, -0.0125, -0.0440,  0.0219,  0.1334
1491853065.7791109085,1491853065.7814168930, -0.1842,  0.0099, -0.0125, -0.0440,  0.0219,  0.1334
1491853065.7817850113,1491853065.7841091156, -0.1842,  0.0099, -0.0125, -0.0314,  0.0223,  0.1238
1491853065.7844889164,1491853065.7869160175, -0.1842,  0.0099, -0.0125, -0.0314,  0.0223,  0.1238
1491853065.7872929573,1491853065.7897260189, -0.1842,  0.0099, -0.0125, -0.0314,  0.0223,  0.1238
1491853065.7901020050,1491853065.7925291061, -0.1842,  0.0099, -0.0125, -0.0314,  0.0223,  0.1238
1491853065.7929050922,1491853065.7953391075, -0.1842,  0.0099, -0.0125, -0.0260,  0.0183,  0.1103
1491853065.7957179546,1491853065.7981469631, -0.1898,  0.0253, -0.0042, -0.0260,  0.0183,  0.1103
1491853065.7985250950,1491853065.8009529114, -0.1898,  0.0253, -0.0042, -0.0260,  0.0183,  0.1103
1491853065.8013300896,1491853065.8037600517, -0.1898,  0.0253, -0.0042, -0.0260,  0.0142,  0.0939
1491853065.8041460514,1491853065.8065741062, -0.1898,  0.0253, -0.0042, -0.0225,  0.0142,  0.0939
1491853065.8069510460,1491853065.8093700409, -0.1898,  0.0253, -0.0042, -0.0225,  0.0142,  0.0939
1491853065.8097469807,1491853065.8121759892, -0.1898,  0.0253, -0.0042, -0.0225,  0.0142,  0.0939
1491853065.8125519753,1491853065.8149840832, -0.1898,  0.0253, -0.0042, -0.0173,  0.0106,  0.0811
1491853065.8153610229,1491853065.8177850246, -0.1898,  0.0165, -0.0028, -0.0173,  0.0106,  0.0811
1491853065.8181629181,1491853065.8206000328, -0.1936,  0.0165, -0.0028, -0.0173,  0.0106,  0.0811
1491853065.8209760189,1491853065.8234040737, -0.1936,  0.0165, -0.0028, -0.0173,  0.0106,  0.0811
1491853065.8237810135,1491853065.8261160851, -0.1936,  0.0165, -0.0028, -0.0084,  0.0125,  0.0668
1491853065.8264880180,1491853065.8287889957, -0.1936,  0.0165, -0.0028, -0.0084,  0.0125,  0.0668
1491853065.8291580677,1491853065.8314530849, -0.1936,  0.0165, -0.0028, -0.0084,  0.0125,  0.0668
1491853065.8318219185,1491853065.8341310024, -0.1936,  0.0165, -0.0028, -0.0084,  0.0125,  0.0598
1491853065.8345019817,1491853065.8368039131, -0.1936,  0.0165, -0.0175, -0.0026,  0.0118,  0.0598
1491853065.8371720314,1491853065.8394639492, -0.1870,  0.0042, -0.0175, -0.0026,  0.0118,  0.0598
1491853065.8398330212,1491853065.8421320915, -0.1870,  0.0042, -0.0175, -0.0026,  0.0118,  0.0598
1491853065.8425030708,1491853065.8448901176, -0.1870,  0.0042, -0.0175, -0.0026,  0.0074,  0.0508
1491853065.8453750610,1491853065.8478109837, -0.1870,  0.0042, -0.0175, -0.0001,  0.0074,  0.0508
1491853065.8481891155,1491853065.8506190777, -0.1870,  0.0042, -0.0175, -0.0001,  0.0074,  0.0508
1491853065.8509991169,1491853065.8534278870, -0.1870,  0.0042, -0.0175, -0.0001,  0.0074,  0.0508
1491853065.8538069725,1491853065.8562870026, -0.1870,  0.0042, -0.0175, -0.0007,  0.0020,  0.0410
1491853065.8566660881,1491853065.8590950966, -0.1879,  0.0097, -0.0139, -0.0007,  0.0020,  0.0410
1491853065.8594748974,1491853065.8618938923, -0.1879,  0.0097, -0.0139, -0.0007,  0.0020,  0.0410
1491853065.8622720242,1491853065.8647129536, -0.1879,  0.0097, -0.0139, -0.0007,  0.0020,  0.0331
1491853065.8650898933,1491853065.8675179482, -0.1879,  0.0097, -0.0139,  0.0049, -0.0015,  0.0327
1491853065.8678979874,1491853065.8703279495, -0.1879,  0.0097, -0.0139,  0.0049, -0.0015,  0.0327
1491853065.8707089424,1491853065.8731338978, -0.1879,  0.0097, -0.0139,  0.0049, -0.0015,  0.0327
1491853065.8735129833,1491853065.8759539127, -0.1879,  0.0097, -0.0139,  0.0128, -0.0057,  0.0246
1491853065.8763320446,1491853065.8787651062, -0.1896,  0.0073, -0.0061,  0.0090, -0.0057,  0.0246
1491853065.8791449070,1491853065.8815701008, -0.1896,  0.0073, -0.0061,  0.0090, -0.0057,  0.0246
1491853065.8819479942,1491853065.8843719959, -0.1896,  0.0073, -0.0061,  0.0090, -0.0057,  0.0246
1491853065.8847429752,1491853065.8870530128, -0.1896,  0.0073, -0.0061,  0.0157, -0.0069,  0.0185
1491853065.8874230385,1491853065.8897199631, -0.1896,  0.0073, -0.0061,  0.0157, -0.0069,  0.0185
1491853065.8900899887,1491853065.8923909664, -0.1896,  0.0073, -0.0061,  0.0157, -0.0069,  0.0185
1491853065.8927609921,1491853065.8951408863, -0.1896,  0.0073, -0.0061,  0.0157, -0.0069,  0.0185
1491853065.8955190182,1491853065.8979449272, -0.1908,  0.0071,  0.0023,  0.0212, -0.0055,  0.0158
1491853065.8983221054,1491853065.9007530212, -0.1908,  0.0071,  0.0023,  0.0212, -0.0055,  0.0158
1491853065.9011309147,1491853065.9035639763, -0.1908,  0.0071,  0.0023,  0.0212, -0.0055,  0.0158
1491853065.9039430618,1491853065.9063780308, -0.1908,  0.0071,  0.0023,  0.0212, -0.0055,  0.0115
1491853065.9067549706,1491853065.9091880322, -0.1908,  0.0071,  0.0023,  0.0237, -0.0005,  0.0115
1491853065.9095649719,1491853065.9119889736, -0.1908,  0.0071,  0.0023,  0.0237, -0.0005,  0.0115
1491853065.9123680592,1491853065.9148020744, -0.1908,  0.0071,  0.0023,  0.0237, -0.0005,  0.0115
1491853065.9151790142,1491853065.9176020622, -0.1891,  0.0072,  0.0068,  0.0264,  0.0043,  0.0061
1491853065.9179790020,1491853065.9204080105, -0.1891,  0.0072,  0.0068,  0.0264,  0.0043,  0.0061
1491853065.9207859039,1491853065.9232170582, -0.1891,  0.0072,  0.0068,  0.0264,  0.0043,  0.0061
1491853065.9235970974,1491853065.9260699749, -0.1891,  0.0072,  0.0068,  0.0264,  0.0043,  0.0061
1491853065.9264481068,1491853065.9288721085, -0.1891,  0.0072,  0.0068,  0.0285,  0.0081,  0.0019
1491853065.9292509556,1491853065.9316799641, -0.1891,  0.0072,  0.0068,  0.0285,  0.0081,  0.0019
1491853065.9320600033,1491853065.9344780445, -0.1891,  0.0072,  0.0068,  0.0285,  0.0081,  0.0019
1491853065.9348480701,1491853065.9371550083, -0.1888, -0.0018,  0.0104,  0.0285,  0.0081,  0.0002
1491853065.9375240803,1491853065.9398159981, -0.1888, -0.0018,  0.0104,  0.0270,  0.0081,  0.0002
1491853065.9401860237,1491853065.9424889088, -0.1888, -0.0018,  0.0104,  0.0270,  0.0081,  0.0002
1491853065.9428589344,1491853065.9452080727, -0.1888, -0.0018,  0.0104,  0.0270,  0.0081,  0.0002
1491853065.9455780983,1491853065.9478731155, -0.1888, -0.0018,  0.0104,  0.0270,  0.0095,  0.0017
1491853065.9482440948,1491853065.9505400658, -0.1888, -0.0018,  0.0104,  0.0251,  0.0095,  0.0017
1491853065.9509088993,1491853065.9532129765, -0.1888, -0.0018,  0.0104,  0.0251,  0.0095,  0.0017
1491853065.9535830021,1491853065.9560039043, -0.1888, -0.0018,  0.0032,  0.0251,  0.0095,  0.0017
1491853065.9563839436,1491853065.9588100910, -0.1892, -0.0085,  0.0032,  0.0244,  0.0100,  0.0059
1491853065.9591889381,1491853065.9616119862, -0.1892, -0.0085,  0.0032,  0.0244,  0.0100,  0.0059
1491853065.9621140957,1491853065.9645540714, -0.1892, -0.0085,  0.0032,  0.0244,  0.0100,  0.0059
1491853065.9649319649,1491853065.9673669338, -0.1892, -0.0085,  0.0032,  0.0244,  0.0100,  0.0059
1491853065.9677419662,1491853065.9701650143, -0.1892, -0.0085,  0.0032,  0.0200,  0.0076,  0.0099
1491853065.9705440998,1491853065.9729681015, -0.1892, -0.0085,  0.0032,  0.0200,  0.0076,  0.0099
1491853065.9733450413,1491853065.9757919312, -0.1892, -0.0085, -0.0017,  0.0200,  0.0076,  0.0099
1491853065.9761710167,1491853065.9785990715, -0.1869, -0.0009, -0.0017,  0.0200,  0.0053,  0.0116
1491853065.9789800644,1491853065.9814109802, -0.1869, -0.0009, -0.0017,  0.0175,  0.0053,  0.0116
1491853065.9817891121,1491853065.9842700958, -0.1869, -0.0009, -0.0017,  0.0175,  0.0053,  0.0116
1491853065.9846470356,1491853065.9870719910, -0.1869, -0.0009, -0.0017,  0.0175,  0.0053,  0.0116
1491853065.9874510765,1491853065.9898800850, -0.1869, -0.0009, -0.0017,  0.0151,  0.0042,  0.0131
1491853065.9902570248,1491853065.9926819801, -0.1869, -0.0009, -0.0017,  0.0151,  0.0042,  0.0131
1491853065.9930589199,1491853065.9954218864, -0.1869, -0.0009,  0.0045,  0.0151,  0.0042,  0.0131
1491853065.9957919121,1491853065.9980950356, -0.1880,  0.0045,  0.0045,  0.0151,  0.0042,  0.0131
1491853065.9984650612,1491853066.0007638931, -0.1880,  0.0045,  0.0045,  0.0153,  0.0058,  0.0133
1491853066.0011360645,1491853066.0034410954, -0.1880,  0.0045,  0.0045,  0.0153,  0.0058,  0.0133
1491853066.0038108826,1491853066.0063290596, -0.1880,  0.0045,  0.0045,  0.0153,  0.0058,  0.0133
1491853066.0067059994,1491853066.0091381073, -0.1880,  0.0045,  0.0045,  0.0153,  0.0058,  0.0129
1491853066.0095150471,1491853066.0119440556, -0.1880,  0.0045,  0.0045,  0.0154,  0.0083,  0.0129
1491853066.0123250484,1491853066.0147650242, -0.1880,  0.0045,  0.0045,  0.0154,  0.0083,  0.0129
1491853066.0151429176,1491853066.0175640583, -0.1883,  0.0076,  0.0038,  0.0154,  0.0083,  0.0129
1491853066.0179400444,1491853066.0203649998, -0.1883,  0.0076,  0.0038,  0.0152,  0.0104,  0.0109
1491853066.0207428932,1491853066.0231730938, -0.1883,  0.0076,  0.0038,  0.0152,  0.0104,  0.0109
1491853066.0235490799,1491853066.0259950161, -0.1883,  0.0076,  0.0038,  0.0152,  0.0104,  0.0109
1491853066.0263710022,1491853066.0287950039, -0.1883,  0.0076,  0.0038,  0.0152,  0.0104,  0.0109
1491853066.0291728973,1491853066.0315999985, -0.1883,  0.0076,  0.0038,  0.0150,  0.0126,  0.0093
1491853066.0319778919,1491853066.0343909264, -0.1883,  0.0076,  0.0038,  0.0150,  0.0126,  0.0093
1491853066.0347609520,1491853066.0370550156, -0.1902,  0.0080,  0.0044,  0.0150,  0.0126,  0.0093
1491853066.0374250412,1491853066.0397229195, -0.1902,  0.0080,  0.0044,  0.0150,  0.0126,  0.0015
1491853066.0400929451,1491853066.0423979759, -0.1902,  0.0080,  0.0044,  0.0173,  0.0157,  0.0060
1491853066.0427689552,1491853066.0451400280, -0.1902,  0.0080,  0.0044,  0.0173,  0.0157,  0.0060
1491853066.0455200672,1491853066.0479528904, -0.1902,  0.0080,  0.0044,  0.0173,  0.0157,  0.0060
1491853066.0483300686,1491853066.0507690907, -0.1902,  0.0080,  0.0044,  0.0173,  0.0175,  0.0034
1491853066.0511488914,1491853066.0535690784, -0.1902,  0.0080,  0.0044,  0.0204,  0.0175,  0.0034
1491853066.0539469719,1491853066.0564069748, -0.1873,  0.0107, -0.0024,  0.0204,  0.0175,  0.0034
1491853066.0567851067,1491853066.0592100620, -0.1873,  0.0107, -0.0024,  0.0204,  0.0175,  0.0034
1491853066.0595870018,1491853066.0620141029, -0.1873,  0.0107, -0.0024,  0.0240,  0.0190,  0.0017
1491853066.0623919964,1491853066.0648770332, -0.1873,  0.0107, -0.0024,  0.0240,  0.0190,  0.0017
1491853066.0652561188,1491853066.0676879883, -0.1873,  0.0107, -0.0024,  0.0240,  0.0190,  0.0017
1491853066.0680649281,1491853066.0704989433, -0.1873,  0.0107, -0.0024,  0.0240,  0.0190,  0.0017
1491853066.0708770752,1491853066.0733039379, -0.1873,  0.0107, -0.0024,  0.0245,  0.0192,  0.0016
1491853066.0736830235,1491853066.0761079788, -0.1869,  0.0010, -0.0030,  0.0245,  0.0192,  0.0016
1491853066.0765869617,1491853066.0790200233, -0.1869,  0.0010, -0.0030,  0.0245,  0.0192,  0.0016
1491853066.0793979168,1491853066.0818269253, -0.1869,  0.0010, -0.0030,  0.0213,  0.0175,  0.0035
1491853066.0822041035,1491853066.0846560001, -0.1869,  0.0010, -0.0030,  0.0213,  0.0175,  0.0035
1491853066.0850260258,1491853066.0873310566, -0.1869,  0.0010, -0.0030,  0.0213,  0.0175,  0.0035
1491853066.0876989365,1491853066.0899970531, -0.1869,  0.0010, -0.0030,  0.0213,  0.0175,  0.0035
1491853066.0903670788,1491853066.0926740170, -0.1869,  0.0010, -0.0030,  0.0160,  0.0174,  0.0063
1491853066.0930440426,1491853066.0954439640, -0.1895,  0.0047, -0.0002,  0.0160,  0.0174,  0.0063
1491853066.0958199501,1491853066.0982079506, -0.1895,  0.0047, -0.0002,  0.0160,  0.0174,  0.0063
1491853066.0985829830,1491853066.1009759903, -0.1895,  0.0047, -0.0002,  0.0160,  0.0174,  0.0063
1491853066.1013510227,1491853066.1037380695, -0.1895,  0.0047, -0.0002,  0.0121,  0.0199,  0.0082
1491853066.1042249203,1491853066.1066648960, -0.1895,  0.0047, -0.0002,  0.0121,  0.0199,  0.0082
1491853066.1070439816,1491853066.1094779968, -0.1895,  0.0047, -0.0002,  0.0121,  0.0199,  0.0082
1491853066.1098549366,1491853066.1122810841, -0.1895,  0.0047, -0.0002,  0.0121,  0.0277,  0.0135
1491853066.1126561165,1491853066.1150999069, -0.1895,  0.0052,  0.0018,  0.0090,  0.0243,  0.0135
1491853066.1154799461,1491853066.1179070473, -0.1905,  0.0052,  0.0018,  0.0090,  0.0243,  0.0135
1491853066.1182858944,1491853066.1207020283, -0.1905,  0.0052,  0.0018,  0.0090,  0.0243,  0.0135
1491853066.1210799217,1491853066.1235070229, -0.1905,  0.0052,  0.0018,  0.0071,  0.0288,  0.0172
1491853066.1238849163,1491853066.1263229847, -0.1905,  0.0052,  0.0018,  0.0071,  0.0288,  0.0172
1491853066.1266999245,1491853066.1291220188, -0.1905,  0.0052,  0.0018,  0.0071,  0.0288,  0.0172
1491853066.1295011044,1491853066.1319320202, -0.1905,  0.0052,  0.0018,  0.0071,  0.0288,  0.0172
1491853066.1323099136,1491853066.1347200871, -0.1905,  0.0073,  0.0057,  0.0051,  0.0302,  0.0188
1491853066.1350920200,1491853066.1373920441, -0.1895,  0.0073,  0.0057,  0.0051,  0.0302,  0.0188
1491853066.1377630234,1491853066.1400599480, -0.1895,  0.0073,  0.0057,  0.0051,  0.0302,  0.0188
1491853066.1404309273,1491853066.1427280903, -0.1895,  0.0073,  0.0057,  0.0051,  0.0302,  0.0199
1491853066.1430981159,1491853066.1455121040, -0.1895,  0.0073,  0.0057,  0.0083,  0.0296,  0.0199
1491853066.1458868980,1491853066.1482760906, -0.1895,  0.0073,  0.0057,  0.0083,  0.0296,  0.0199
1491853066.1486520767,1491853066.1512029171, -0.1895,  0.0073,  0.0057,  0.0083,  0.0296,  0.0199
1491853066.1515810490,1491853066.1540110111, -0.1895,  0.0073, -0.0010,  0.0116,  0.0289,  0.0215
1491853066.1544311047,1491853066.1568589211, -0.1885,  0.0081, -0.0010,  0.0116,  0.0289,  0.0215
1491853066.1572389603,1491853066.1596679688, -0.1885,  0.0081, -0.0010,  0.0116,  0.0289,  0.0215
1491853066.1600470543,1491853066.1624760628, -0.1885,  0.0081, -0.0010,  0.0116,  0.0289,  0.0215
1491853066.1628530025,1491853066.1652879715, -0.1885,  0.0081, -0.0010,  0.0139,  0.0281,  0.0228
1491853066.1656661034,1491853066.1680989265, -0.1885,  0.0081, -0.0010,  0.0139,  0.0281,  0.0228
1491853066.1684789658,1491853066.1709060669, -0.1885,  0.0081, -0.0010,  0.0139,  0.0281,  0.0228
1491853066.1712839603,1491853066.1737120152, -0.1885,  0.0081, -0.0088,  0.0139,  0.0281,  0.0227
1491853066.1740980148,1491853066.1765389442, -0.1913,  0.0046, -0.0117,  0.0142,  0.0285,  0.0227
1491853066.1769158840,1491853066.1793448925, -0.1913,  0.0046, -0.0117,  0.0142,  0.0285,  0.0227
1491853066.1797211170,1491853066.1821548939, -0.1913,  0.0046, -0.0117,  0.0142,  0.0285,  0.0227
1491853066.1825311184,1491853066.1849339008, -0.1913,  0.0046, -0.0117,  0.0148,  0.0280,  0.0236
1491853066.1853039265,1491853066.1876060963, -0.1913,  0.0046, -0.0117,  0.0148,  0.0280,  0.0236
1491853066.1879770756,1491853066.1902780533, -0.1913,  0.0046, -0.0117,  0.0148,  0.0280,  0.0236
1491853066.1906480789,1491853066.1929531097, -0.1913,  0.0046, -0.0117,  0.0148,  0.0280,  0.0236
1491853066.1934299469,1491853066.1957778931, -0.1893,  0.0098, -0.0105,  0.0187,  0.0276,  0.0239
1491853066.1961469650,1491853066.1984438896, -0.1893,  0.0098, -0.0105,  0.0187,  0.0276,  0.0239
1491853066.1988129616,1491853066.2011089325, -0.1893,  0.0098, -0.0105,  0.0187,  0.0276,  0.0239
1491853066.2014789581,1491853066.2037789822, -0.1893,  0.0098, -0.0105,  0.0187,  0.0276,  0.0239
1491853066.2041649818,1491853066.2065789700, -0.1893,  0.0098, -0.0105,  0.0223,  0.0286,  0.0247
1491853066.2069559097,1491853066.2093880177, -0.1893,  0.0098, -0.0105,  0.0223,  0.0286,  0.0247
1491853066.2097640038,1491853066.2121911049, -0.1893,  0.0098, -0.0105,  0.0223,  0.0286,  0.0247
1491853066.2125670910,1491853066.2150070667, -0.1906,  0.0111, -0.0093,  0.0223,  0.0286,  0.0269
1491853066.2153840065,1491853066.2178080082, -0.1906,  0.0111, -0.0093,  0.0228,  0.0297,  0.0269
1491853066.2181839943,1491853066.2206110954, -0.1906,  0.0111, -0.0093,  0.0228,  0.0297,  0.0269
1491853066.2209880352,1491853066.2234110832, -0.1906,  0.0111, -0.0093,  0.0228,  0.0297,  0.0269
1491853066.2237880230,1491853066.2262229919, -0.1906,  0.0111, -0.0093,  0.0229,  0.0316,  0.0280
1491853066.2265999317,1491853066.2290260792, -0.1906,  0.0111, -0.0093,  0.0229,  0.0316,  0.0280
1491853066.2294030190,1491853066.2318279743, -0.1906,  0.0111, -0.0093,  0.0229,  0.0316,  0.0280
1491853066.2322039604,1491853066.2346479893, -0.1938,  0.0107, -0.0092,  0.0229,  0.0316,  0.0280
1491853066.2350180149,1491853066.2373189926, -0.1938,  0.0107, -0.0092,  0.0215,  0.0342,  0.0297
1491853066.2376880646,1491853066.2399890423, -0.1938,  0.0107, -0.0092,  0.0215,  0.0342,  0.0297
1491853066.2403581142,1491853066.2426578999, -0.1938,  0.0107, -0.0092,  0.0215,  0.0342,  0.0297
1491853066.2430269718,1491853066.2453839779, -0.1938,  0.0107, -0.0092,  0.0215,  0.0342,  0.0375
1491853066.2457580566,1491853066.2481470108, -0.1938,  0.0107, -0.0092,  0.0232,  0.0369,  0.0313
1491853066.2485220432,1491853066.2509469986, -0.1938,  0.0107, -0.0092,  0.0232,  0.0369,  0.0313
1491853066.2513239384,1491853066.2537529469, -0.1938,  0.0144, -0.0149,  0.0232,  0.0369,  0.0313
1491853066.2541399002,1491853066.2565720081, -0.1890,  0.0144, -0.0149,  0.0310,  0.0378,  0.0327
1491853066.2569470406,1491853066.2593710423, -0.1890,  0.0144, -0.0149,  0.0238,  0.0378,  0.0327
1491853066.2597460747,1491853066.2621700764, -0.1890,  0.0144, -0.0149,  0.0238,  0.0378,  0.0327
1491853066.2625470161,1491853066.2649860382, -0.1890,  0.0144, -0.0149,  0.0238,  0.0378,  0.0327
1491853066.2653601170,1491853066.2677919865, -0.1890,  0.0144, -0.0149,  0.0264,  0.0359,  0.0336
1491853066.2681689262,1491853066.2706000805, -0.1890,  0.0144, -0.0149,  0.0264,  0.0359,  0.0336
1491853066.2709770203,1491853066.2734060287, -0.1890,  0.0132, -0.0162,  0.0264,  0.0359,  0.0336
1491853066.2737810612,1491853066.2762119770, -0.1873,  0.0132, -0.0162,  0.0264,  0.0359,  0.0336
1491853066.2765860558,1491853066.2790238857, -0.1873,  0.0132, -0.0162,  0.0258,  0.0302,  0.0355
1491853066.2794001102,1491853066.2818269730, -0.1873,  0.0132, -0.0162,  0.0258,  0.0302,  0.0355
1491853066.2822020054,1491853066.2846410275, -0.1873,  0.0132, -0.0162,  0.0258,  0.0302,  0.0355
1491853066.2850100994,1491853066.2873129845, -0.1873,  0.0132, -0.0162,  0.0258,  0.0247,  0.0363
1491853066.2876820564,1491853066.2899870872, -0.1873,  0.0132, -0.0162,  0.0254,  0.0247,  0.0363
1491853066.2903559208,1491853066.2926599979, -0.1873,  0.0132,  0.0150,  0.0254,  0.0247,  0.0363
1491853066.2930300236,1491853066.2954089642, -0.1848,  0.0056,  0.0150,  0.0254,  0.0247,  0.0363
1491853066.2957839966,1491853066.2982170582, -0.1848,  0.0056,  0.0150,  0.0309,  0.0183,  0.0394
1491853066.2985939980,1491853066.3010640144, -0.1848,  0.0056,  0.0150,  0.0309,  0.0183,  0.0394
1491853066.3014440536,1491853066.3038620949, -0.1848,  0.0056,  0.0150,  0.0309,  0.0183,  0.0394
1491853066.3042690754,1491853066.3066570759, -0.1848,  0.0056,  0.0150,  0.0309,  0.0183,  0.0394
1491853066.3070309162,1491853066.3094270229, -0.1848,  0.0056,  0.0150,  0.0193,  0.0306,  0.0451
1491853066.3099100590,1491853066.3123660088, -0.1848,  0.0056, -0.0006,  0.0193,  0.0306,  0.0451
1491853066.3127429485,1491853066.3151860237, -0.1833,  0.0158, -0.0050,  0.0193,  0.0306,  0.0451
1491853066.3155620098,1491853066.3179891109, -0.1833,  0.0158, -0.0050,  0.0193,  0.0462,  0.0476
1491853066.3183629513,1491853066.3207879066, -0.1833,  0.0158, -0.0050,  0.0074,  0.0392,  0.0476
1491853066.3211669922,1491853066.3236000538, -0.1833,  0.0158, -0.0050,  0.0074,  0.0392,  0.0476
1491853066.3239760399,1491853066.3264229298, -0.1833,  0.0158, -0.0050,  0.0074,  0.0392,  0.0476
1491853066.3267989159,1491853066.3292260170, -0.1833,  0.0158, -0.0050,  0.0061,  0.0360,  0.0522
1491853066.3296039104,1491853066.3320300579, -0.1833,  0.0158, -0.0050,  0.0061,  0.0360,  0.0522
1491853066.3324069977,1491853066.3348588943, -0.2213,  0.0095, -0.0079,  0.0061,  0.0360,  0.0522
1491853066.3352301121,1491853066.3375329971, -0.2213,  0.0095, -0.0079,  0.0061,  0.0360,  0.0522
1491853066.3379020691,1491853066.3402040005, -0.2213,  0.0095, -0.0079,  0.0020,  0.0353,  0.0640
1491853066.3405759335,1491853066.3428759575, -0.2213,  0.0095, -0.0079,  0.0020,  0.0353,  0.0640
1491853066.3432469368,1491853066.3456759453, -0.2213,  0.0095, -0.0079,  0.0020,  0.0353,  0.0640
1491853066.3460509777,1491853066.3484439850, -0.2213,  0.0095, -0.0079,  0.0020,  0.0353,  0.0845
1491853066.3488190174,1491853066.3513450623, -0.2213,  0.0095, -0.0079,  0.0030,  0.0303,  0.0845
1491853066.3517270088,1491853066.3541660309, -0.2560, -0.0128, -0.0006,  0.0030,  0.0303,  0.0845
1491853066.3545439243,1491853066.3569691181, -0.2560, -0.0128, -0.0006,  0.0030,  0.0303,  0.0845
1491853066.3573451042,1491853066.3597769737, -0.2560, -0.0128, -0.0006,  0.0096,  0.0279,  0.1045
1491853066.3601551056,1491853066.3625800610, -0.2560, -0.0128, -0.0006,  0.0096,  0.0279,  0.1045
1491853066.3629589081,1491853066.3653879166, -0.2560, -0.0128, -0.0006,  0.0096,  0.0279,  0.1045
1491853066.3657660484,1491853066.3681950569, -0.2560, -0.0128, -0.0006,  0.0096,  0.0279,  0.1045
1491853066.3685719967,1491853066.3709909916, -0.2560, -0.0128, -0.0006,  0.0017,  0.0466,  0.1309
1491853066.3713688850,1491853066.3737940788, -0.2263,  0.0074, -0.0151,  0.0017,  0.0466,  0.1309
1491853066.3741829395,1491853066.3764879704, -0.2263,  0.0074, -0.0151,  0.0017,  0.0466,  0.1309
1491853066.3768589497,1491853066.3791599274, -0.2263,  0.0074, -0.0151,  0.0017,  0.0466,  0.1465
1491853066.3795309067,1491853066.3818349838, -0.2263,  0.0074, -0.0151,  0.0028,  0.0343,  0.1469
1491853066.3822050095,1491853066.3845489025, -0.2263,  0.0074, -0.0151,  0.0028,  0.0343,  0.1469
1491853066.3849260807,1491853066.3873510361, -0.2263,  0.0074, -0.0151,  0.0028,  0.0343,  0.1469
1491853066.3877289295,1491853066.3901579380, -0.2263,  0.0074, -0.0151,  0.0028,  0.0409,  0.1678
1491853066.3905360699,1491853066.3929569721, -0.2698, -0.0179, -0.0367, -0.0044,  0.0409,  0.1678
1491853066.3933351040,1491853066.3957738876, -0.2698, -0.0179, -0.0367, -0.0044,  0.0409,  0.1678
1491853066.3961510658,1491853066.3985769749, -0.2698, -0.0179, -0.0367, -0.0044,  0.0409,  0.1678
1491853066.3989520073,1491853066.4013829231, -0.2698, -0.0179, -0.0367, -0.0115,  0.0487,  0.1888
1491853066.4017601013,1491853066.4041891098, -0.2698, -0.0179, -0.0367, -0.0115,  0.0487,  0.1888
1491853066.4045639038,1491853066.4069900513, -0.2698, -0.0179, -0.0367, -0.0115,  0.0487,  0.1888
1491853066.4073679447,1491853066.4097990990, -0.2698, -0.0179, -0.0367, -0.0115,  0.0487,  0.1888
1491853066.4101738930,1491853066.4126079082, -0.2583, -0.0215, -0.0065,  0.0024,  0.0610,  0.2091
1491853066.4129850864,1491853066.4154140949, -0.2583, -0.0215, -0.0065,  0.0024,  0.0610,  0.2091
1491853066.4157900810,1491853066.4182209969, -0.2583, -0.0215, -0.0065,  0.0024,  0.0610,  0.2091
1491853066.4185969830,1491853066.4210290909, -0.2583, -0.0215, -0.0065,  0.0024,  0.0638,  0.2260
1491853066.4214079380,1491853066.4238300323, -0.2583, -0.0215, -0.0065,  0.0168,  0.0638,  0.2260
1491853066.4242138863,1491853066.4265239239, -0.2583, -0.0215, -0.0065,  0.0168,  0.0638,  0.2260
1491853066.4270100594,1491853066.4293150902, -0.2583, -0.0215, -0.0065,  0.0168,  0.0638,  0.2260
1491853066.4296839237,1491853066.4319798946, -0.2583, -0.0334, -0.0238,  0.0188,  0.0595,  0.2462
1491853066.4323480129,1491853066.4347109795, -0.2732, -0.0334, -0.0238,  0.0188,  0.0595,  0.2462
1491853066.4350850582,1491853066.4374969006, -0.2732, -0.0334, -0.0238,  0.0188,  0.0595,  0.2462
1491853066.4378719330,1491853066.4402799606, -0.2732, -0.0334, -0.0238,  0.0188,  0.0595,  0.2462
1491853066.4406540394,1491853066.4430649281, -0.2732, -0.0334, -0.0238,  0.0285,  0.0598,  0.2720
1491853066.4434409142,1491853066.4458470345, -0.2732, -0.0334, -0.0238,  0.0285,  0.0598,  0.2720
1491853066.4462199211,1491853066.4486150742, -0.2732, -0.0334, -0.0238,  0.0285,  0.0598,  0.2720
1491853066.4489889145,1491853066.4514379501, -0.2732, -0.0334,  0.0051,  0.0285,  0.0598,  0.3042
1491853066.4518160820,1491853066.4542849064, -0.2675, -0.0629,  0.0051,  0.0352,  0.0428,  0.3042
1491853066.4546539783,1491853066.4569571018, -0.2675, -0.0629,  0.0051,  0.0352,  0.0428,  0.3042
1491853066.4573268890,1491853066.4596219063, -0.2675, -0.0629,  0.0051,  0.0352,  0.0428,  0.3042
1491853066.4599909782,1491853066.4622869492, -0.2675, -0.0629,  0.0051,  0.0586,  0.0276,  0.3413
1491853066.4626569748,1491853066.4650669098, -0.2675, -0.0629,  0.0051,  0.0562,  0.0276,  0.3413
1491853066.4654450417,1491853066.4678740501, -0.2675, -0.0629,  0.0051,  0.0562,  0.0276,  0.3413
1491853066.4682500362,1491853066.4706790447, -0.2675, -0.0629,  0.0051,  0.0562,  0.0276,  0.3413
1491853066.4710559845,1491853066.4734790325, -0.2574, -0.0858,  0.0239,  0.0902,  0.0070,  0.3818
1491853066.4738581181,1491853066.4761788845, -0.2574, -0.0858,  0.0239,  0.0902,  0.0070,  0.3818
1491853066.4765501022,1491853066.4788539410, -0.2574, -0.0858,  0.0239,  0.0902,  0.0070,  0.3818
1491853066.4792239666,1491853066.4815180302, -0.2574, -0.0858,  0.0239,  0.0902,  0.0070,  0.3818
1491853066.4818890095,1491853066.4841969013, -0.2574, -0.0858,  0.0239,  0.1276, -0.0293,  0.4276
1491853066.4845728874,1491853066.4870040417, -0.2574, -0.0858,  0.0239,  0.1276, -0.0293,  0.4276
1491853066.4873828888,1491853066.4898030758, -0.2574, -0.0858,  0.0239,  0.1276, -0.0293,  0.4276
1491853066.4901790619,1491853066.4926071167, -0.3471, -0.0663,  0.0633,  0.1276, -0.0293,  0.4855
1491853066.4929831028,1491853066.4954140186, -0.3471, -0.0663,  0.0633,  0.1412, -0.0561,  0.4855
1491853066.4957931042,1491853066.4982130527, -0.3471, -0.0663,  0.0633,  0.1412, -0.0561,  0.4855
1491853066.4985899925,1491853066.5010209084, -0.3471, -0.0663,  0.0633,  0.1412, -0.0561,  0.4855
1491853066.5013980865,1491853066.5038158894, -0.3471, -0.0663,  0.0633,  0.0919,  0.0032,  0.5593
1491853066.5042009354,1491853066.5066289902, -0.3471, -0.0663,  0.0633,  0.0919,  0.0032,  0.5593
1491853066.5070068836,1491853066.5094399452, -0.3471, -0.0663,  0.0633,  0.0919,  0.0032,  0.5593
1491853066.5098149776,1491853066.5122399330, -0.3513,  0.0955,  0.0234,  0.0919,  0.0032,  0.5593
1491853066.5126149654,1491853066.5150868893, -0.3513,  0.0955,  0.0234,  0.0249,  0.0816,  0.5849
1491853066.5154640675,1491853066.5178880692, -0.3513,  0.0955,  0.0234,  0.0249,  0.0816,  0.5849
1491853066.5182659626,1491853066.5206880569, -0.3513,  0.0955,  0.0234,  0.0249,  0.0816,  0.5849
1491853066.5210640430,1491853066.5234889984, -0.3513,  0.0955,  0.0234,  0.0249,  0.0816,  0.5670
1491853066.5238640308,1491853066.5261859894, -0.3513,  0.0955,  0.0234,  0.0052,  0.1119,  0.5670
1491853066.5265550613,1491853066.5288579464, -0.3513,  0.0955,  0.0234,  0.0052,  0.1119,  0.5670
1491853066.5292279720,1491853066.5315349102, -0.3179,  0.0512,  0.0047,  0.0052,  0.1119,  0.5670
1491853066.5319058895,1491853066.5342659950, -0.3179,  0.0512,  0.0047,  0.0052,  0.1202,  0.5300
1491853066.5346438885,1491853066.5370719433, -0.3179,  0.0512,  0.0047,  0.0044,  0.1202,  0.5300
1491853066.5374500751,1491853066.5398740768, -0.3179,  0.0512,  0.0047,  0.0044,  0.1202,  0.5300
1491853066.5402500629,1491853066.5426769257, -0.3179,  0.0512,  0.0047,  0.0044,  0.1202,  0.5300
1491853066.5431630611,1491853066.5455989838, -0.3179,  0.0512,  0.0047, -0.0141,  0.1303,  0.5000
1491853066.5459771156,1491853066.5484070778, -0.3179,  0.0512,  0.0047, -0.0141,  0.1303,  0.5000
1491853066.5487849712,1491853066.5512080193, -0.2085, -0.0296,  0.0015, -0.0141,  0.1303,  0.5000
1491853066.5515871048,1491853066.5540649891, -0.2077, -0.0296,  0.0015, -0.0141,  0.1303,  0.4609
1491853066.5544440746,1491853066.5568690300, -0.2077, -0.0296,  0.0015, -0.0149,  0.0980,  0.4608
1491853066.5572469234,1491853066.5596809387, -0.2077, -0.0296,  0.0015, -0.0149,  0.0980,  0.4608
1491853066.5600600243,1491853066.5624859333, -0.2077, -0.0296,  0.0015, -0.0149,  0.0980,  0.4608
1491853066.5628650188,1491853066.5652389526, -0.2077, -0.0296,  0.0015,  0.0085,  0.0608,  0.4116
1491853066.5656080246,1491853066.5679130554, -0.2077, -0.0296,  0.0015,  0.0094,  0.0608,  0.4116
1491853066.5682830811,1491853066.5705840588, -0.2077, -0.0099,  0.0033,  0.0094,  0.0608,  0.4116
1491853066.5709559917,1491853066.5732541084, -0.1127, -0.0099,  0.0033,  0.0094,  0.0608,  0.4116
1491853066.5736250877,1491853066.5759758949, -0.1127, -0.0099,  0.0033,  0.0529,  0.0669,  0.3611
1491853066.5763459206,1491853066.5786468983, -0.1127, -0.0099,  0.0033,  0.0529,  0.0669,  0.3611
1491853066.5790169239,1491853066.5813219547, -0.1127, -0.0099,  0.0033,  0.0529,  0.0669,  0.3611
1491853066.5816910267,1491853066.5839869976, -0.1127, -0.0099,  0.0033,  0.0529,  0.0669,  0.3611
1491853066.5844280720,1491853066.5868539810, -0.1127, -0.0099,  0.0033,  0.0592,  0.0878,  0.2620
1491853066.5872330666,1491853066.5896649361, -0.1127, -0.0099,  0.0033,  0.0592,  0.0878,  0.2620
1491853066.5900430679,1491853066.5924699306,  0.0122,  0.0912, -0.0009,  0.0592,  0.0878,  0.2620
1491853066.5928449631,1491853066.5952830315,  0.0122,  0.0912, -0.0009,  0.0592,  0.0878,  0.0901
1491853066.5956590176,1491853066.5980889797,  0.0122,  0.0912, -0.0009,  0.1071,  0.0609,  0.0892
1491853066.5984680653,1491853066.6008939743,  0.0122,  0.0912, -0.0009,  0.1071,  0.0609,  0.0892
1491853066.6012699604,1491853066.6036949158,  0.0122,  0.0912, -0.0009,  0.1071,  0.0609,  0.0892
1491853066.6040821075,1491853066.6065080166,  0.0122,  0.0912, -0.0009,  0.0758,  0.0598, -0.0493
1491853066.6068849564,1491853066.6093149185,  0.0122,  0.0912, -0.0009,  0.0739,  0.0598, -0.0493
1491853066.6096889973,1491853066.6121239662, -0.0991, -0.0116,  0.0025,  0.0739,  0.0598, -0.0493
1491853066.6125009060,1491853066.6148920059, -0.0991, -0.0116,  0.0025,  0.0739,  0.0598, -0.0493
1491853066.6152610779,1491853066.6175580025, -0.0991, -0.0116,  0.0025,  0.0427,  0.0687, -0.1285
1491853066.6179289818,1491853066.6202299595, -0.0991, -0.0116,  0.0025,  0.0427,  0.0687, -0.1285
1491853066.6205999851,1491853066.6229000092, -0.0991, -0.0116,  0.0025,  0.0427,  0.0687, -0.1285
1491853066.6232690811,1491853066.6257009506, -0.0991, -0.0116,  0.0025,  0.0427,  0.0687, -0.1285
1491853066.6260769367,1491853066.6285049915, -0.0991, -0.0116,  0.0025,  0.0385,  0.0685, -0.1701
1491853066.6288840771,1491853066.6313118935, -0.1173, -0.0587, -0.0054,  0.0385,  0.0685, -0.1701
1491853066.6316881180,1491853066.6341319084, -0.1173, -0.0587, -0.0054,  0.0385,  0.0685, -0.1701
1491853066.6345100403,1491853066.6369380951, -0.1173, -0.0587, -0.0054,  0.0385,  0.0685, -0.1828
1491853066.6373150349,1491853066.6397399902, -0.1173, -0.0587, -0.0054,  0.0249,  0.0685, -0.1828
1491853066.6401169300,1491853066.6425530910, -0.1173, -0.0587, -0.0054,  0.0249,  0.0685, -0.1828
1491853066.6429309845,1491853066.6453690529, -0.1173, -0.0587, -0.0054,  0.0249,  0.0685, -0.1828
1491853066.6457450390,1491853066.6481769085, -0.1173, -0.0587, -0.0054,  0.0095,  0.0576, -0.1943
1491853066.6485569477,1491853066.6509859562, -0.0890, -0.0203, -0.0090,  0.0095,  0.0576, -0.1943
1491853066.6513628960,1491853066.6537849903, -0.0890, -0.0203, -0.0090,  0.0095,  0.0576, -0.1943
1491853066.6541728973,1491853066.6566081047, -0.0890, -0.0203, -0.0090,  0.0095,  0.0576, -0.1943
1491853066.6570899487,1491853066.6595160961, -0.0890, -0.0203, -0.0090, -0.0100,  0.0520, -0.2265
1491853066.6598939896,1491853066.6623229980, -0.0890, -0.0203, -0.0090, -0.0100,  0.0520, -0.2265
1491853066.6626999378,1491853066.6650910378, -0.0890, -0.0203, -0.0090, -0.0100,  0.0520, -0.2265
1491853066.6654620171,1491853066.6677579880, -0.0890, -0.0203, -0.0090, -0.0100,  0.0520, -0.2724
1491853066.6681311131,1491853066.6704330444, -0.0673, -0.0099, -0.0038, -0.0267,  0.0507, -0.2724
1491853066.6708021164,1491853066.6731019020, -0.0673, -0.0099, -0.0038, -0.0267,  0.0507, -0.2724
1491853066.6734719276,1491853066.6759099960, -0.0673, -0.0099, -0.0038, -0.0267,  0.0507, -0.2724
1491853066.6762878895,1491853066.6787168980, -0.0673, -0.0099, -0.0038, -0.0416,  0.0453, -0.3221
1491853066.6790950298,1491853066.6815259457, -0.0673, -0.0099, -0.0038, -0.0416,  0.0453, -0.3221
1491853066.6819019318,1491853066.6843490601, -0.0673, -0.0099, -0.0038, -0.0416,  0.0453, -0.3221
1491853066.6847259998,1491853066.6871619225, -0.0673, -0.0099, -0.0038, -0.0416,  0.0453, -0.3221
1491853066.6875410080,1491853066.6899640560, -0.0829, -0.0175, -0.0031, -0.0542,  0.0384, -0.3670
1491853066.6903419495,1491853066.6927790642, -0.0784, -0.0175, -0.0031, -0.0542,  0.0384, -0.3670
1491853066.6931550503,1491853066.6955850124, -0.0784, -0.0175, -0.0031, -0.0542,  0.0384, -0.3670
1491853066.6959629059,1491853066.6983890533, -0.0784, -0.0175, -0.0031, -0.0542,  0.0384, -0.3990
1491853066.6987659931,1491853066.7011930943, -0.0784, -0.0175, -0.0031, -0.0588,  0.0261, -0.3990
1491853066.7015709877,1491853066.7040069103, -0.0784, -0.0175, -0.0031, -0.0588,  0.0261, -0.3990
1491853066.7044370174,1491853066.7068629265, -0.0784, -0.0175, -0.0031, -0.0588,  0.0261, -0.3990
1491853066.7072389126,1491853066.7096700668, -0.0941, -0.0056,  0.0042, -0.0598,  0.0110, -0.4207
1491853066.7100489140,1491853066.7124760151, -0.0944, -0.0056,  0.0042, -0.0598,  0.0110, -0.4207
1491853066.7128529549,1491853066.7152349949, -0.0944, -0.0056,  0.0042, -0.0598,  0.0110, -0.4207
1491853066.7156069279,1491853066.7179079056, -0.0944, -0.0056,  0.0042, -0.0598,  0.0110, -0.4207
1491853066.7182779312,1491853066.7205789089, -0.0944, -0.0056,  0.0042, -0.0564, -0.0068, -0.4385
1491853066.7209498882,1491853066.7232511044, -0.0944, -0.0056,  0.0042, -0.0564, -0.0068, -0.4385
1491853066.7236230373,1491853066.7260830402, -0.0944, -0.0056,  0.0042, -0.0564, -0.0068, -0.4385
1491853066.7264618874,1491853066.7288839817, -0.0944, -0.0056,  0.0057, -0.0564, -0.0068, -0.4385
1491853066.7292609215,1491853066.7316949368, -0.1186,  0.0078,  0.0057, -0.0508, -0.0268, -0.4535
1491853066.7320749760,1491853066.7345099449, -0.1186,  0.0078,  0.0057, -0.0508, -0.0268, -0.4535
1491853066.7348868847,1491853066.7373158932, -0.1186,  0.0078,  0.0057, -0.0508, -0.0268, -0.4535
1491853066.7376940250,1491853066.7401170731, -0.1186,  0.0078,  0.0057, -0.0508, -0.0463, -0.4616
1491853066.7404959202,1491853066.7429220676, -0.1186,  0.0078,  0.0057, -0.0472, -0.0463, -0.4616
1491853066.7433009148,1491853066.7457470894, -0.1186,  0.0078,  0.0057, -0.0472, -0.0463, -0.4616
1491853066.7461249828,1491853066.7485439777, -0.1186,  0.0078,  0.0020, -0.0472, -0.0463, -0.4616
1491853066.7489190102,1491853066.7513461113, -0.1501,  0.0158,  0.0020, -0.0458, -0.0632, -0.4626
1491853066.7517240047,1491853066.7541680336, -0.1501,  0.0158,  0.0020, -0.0458, -0.0632, -0.4626
1491853066.7545380592,1491853066.7568390369, -0.1501,  0.0158,  0.0020, -0.0458, -0.0632, -0.4626
1491853066.7572090626,1491853066.7595129013, -0.1501,  0.0158,  0.0020, -0.0458, -0.0632, -0.4626
1491853066.7598810196,1491853066.7621819973, -0.1501,  0.0158,  0.0020, -0.0499, -0.0768, -0.4615
1491853066.7625510693,1491853066.7649300098, -0.1501,  0.0158,  0.0020, -0.0499, -0.0768, -0.4615
1491853066.7653079033,1491853066.7677381039, -0.1501,  0.0158,  0.0020, -0.0499, -0.0768, -0.4615
1491853066.7681169510,1491853066.7705390453, -0.1831,  0.0385,  0.0039, -0.0499, -0.0768, -0.4608
1491853066.7709140778,1491853066.7733390331, -0.1831,  0.0385,  0.0039, -0.0562, -0.0864, -0.4608
1491853066.7738258839,1491853066.7763020992, -0.1831,  0.0385,  0.0039, -0.0562, -0.0864, -0.4608
1491853066.7766799927,1491853066.7791059017, -0.1831,  0.0385,  0.0039, -0.0562, -0.0864, -0.4608
1491853066.7794818878,1491853066.7819120884, -0.1831,  0.0385,  0.0039, -0.0595, -0.0928, -0.4608
1491853066.7822890282,1491853066.7847330570, -0.1831,  0.0385,  0.0039, -0.0595, -0.0928, -0.4608
1491853066.7851099968,1491853066.7875330448, -0.1831,  0.0385,  0.0039, -0.0595, -0.0928, -0.4608
1491853066.7879090309,1491853066.7903380394, -0.2004,  0.0377,  0.0066, -0.0595, -0.0928, -0.4608
1491853066.7907149792,1491853066.7931380272, -0.2004,  0.0377,  0.0066, -0.0579, -0.1012, -0.4590
1491853066.7935190201,1491853066.7959580421, -0.2004,  0.0377,  0.0066, -0.0579, -0.1012, -0.4590
1491853066.7963349819,1491853066.7987649441, -0.2004,  0.0377,  0.0066, -0.0579, -0.1012, -0.4590
1491853066.7991430759,1491853066.8015680313, -0.2004,  0.0377,  0.0066, -0.0579, -0.1090, -0.4581
1491853066.8019459248,1491853066.8043720722, -0.2004,  0.0377,  0.0066, -0.0521, -0.1090, -0.4581
1491853066.8047449589,1491853066.8070480824, -0.2004,  0.0377,  0.0066, -0.0521, -0.1090, -0.4581
1491853066.8074181080,1491853066.8097150326, -0.2180,  0.0433,  0.0119, -0.0521, -0.1090, -0.4581
1491853066.8100860119,1491853066.8123919964, -0.2180,  0.0433,  0.0119, -0.0429, -0.1171, -0.4604
1491853066.8127601147,1491853066.8151369095, -0.2180,  0.0433,  0.0119, -0.0429, -0.1171, -0.4604
1491853066.8155159950,1491853066.8179409504, -0.2180,  0.0433,  0.0119, -0.0429, -0.1171, -0.4604
1491853066.8183190823,1491853066.8207490444, -0.2180,  0.0433,  0.0119, -0.0429, -0.1171, -0.4604
1491853066.8211259842,1491853066.8235530853, -0.2180,  0.0433,  0.0119, -0.0309, -0.1233, -0.4634
1491853066.8239290714,1491853066.8263640404, -0.2180,  0.0433,  0.0119, -0.0309, -0.1233, -0.4634
1491853066.8267419338,1491853066.8291730881, -0.2389,  0.0451,  0.0077, -0.0309, -0.1233, -0.4634
1491853066.8295509815,1491853066.8319768906, -0.2389,  0.0451,  0.0077, -0.0309, -0.1233, -0.4634
1491853066.8323540688,1491853066.8348059654, -0.2389,  0.0451,  0.0077, -0.0167, -0.1285, -0.4677
1491853066.8351840973,1491853066.8376040459, -0.2389,  0.0451,  0.0077, -0.0167, -0.1285, -0.4677
1491853066.8379819393,1491853066.8404080868, -0.2389,  0.0451,  0.0077, -0.0167, -0.1285, -0.4677
1491853066.8407840729,1491853066.8432149887, -0.2389,  0.0451,  0.0077, -0.0046, -0.1320, -0.4726
1491853066.8435940742,1491853066.8460710049, -0.2389,  0.0451,  0.0077, -0.0046, -0.1320, -0.4726
1491853066.8464500904,1491853066.8488819599, -0.2671,  0.0414, -0.0013, -0.0046, -0.1320, -0.4726
1491853066.8492619991,1491853066.8516891003, -0.2671,  0.0414, -0.0013, -0.0046, -0.1320, -0.4726
1491853066.8520669937,1491853066.8544859886, -0.2671,  0.0414, -0.0013,  0.0033, -0.1330, -0.4758
1491853066.8548569679,1491853066.8571639061, -0.2671,  0.0414, -0.0013,  0.0033, -0.1330, -0.4758
1491853066.8575348854,1491853066.8598399162, -0.2671,  0.0414, -0.0013,  0.0033, -0.1330, -0.4758
1491853066.8602130413,1491853066.8625099659, -0.2671,  0.0414, -0.0013,  0.0033, -0.1330, -0.4758
1491853066.8628790379,1491853066.8652889729, -0.2671,  0.0414, -0.0013,  0.0092, -0.1298, -0.4751
1491853066.8656690121,1491853066.8680980206, -0.2671,  0.0521, -0.0077,  0.0092, -0.1298, -0.4751
1491853066.8684771061,1491853066.8709089756, -0.2949,  0.0521, -0.0077,  0.0092, -0.1298, -0.4751
1491853066.8712880611,1491853066.8737170696, -0.2949,  0.0521, -0.0077,  0.0092, -0.1235, -0.4677
1491853066.8741059303,1491853066.8765320778, -0.2949,  0.0521, -0.0077,  0.0106, -0.1235, -0.4677
1491853066.8769109249,1491853066.8793420792, -0.2949,  0.0521, -0.0077,  0.0106, -0.1235, -0.4677
1491853066.8797209263,1491853066.8821480274, -0.2949,  0.0521, -0.0077,  0.0106, -0.1235, -0.4677
1491853066.8825249672,1491853066.8849589825, -0.2949,  0.0521, -0.0077,  0.0125, -0.1153, -0.4526
1491853066.8853380680,1491853066.8877670765, -0.2949,  0.0777, -0.0178,  0.0125, -0.1153, -0.4526
1491853066.8881421089,1491853066.8905689716, -0.3083,  0.0777, -0.0178,  0.0125, -0.1153, -0.4526
1491853066.8910520077,1491853066.8934841156, -0.3083,  0.0777, -0.0178,  0.0125, -0.1153, -0.4526
1491853066.8938610554,1491853066.8962988853, -0.3083,  0.0777, -0.0178,  0.0154, -0.1094, -0.4324
1491853066.8966760635,1491853066.8991029263, -0.3083,  0.0777, -0.0178,  0.0154, -0.1094, -0.4324
1491853066.8994810581,1491853066.9019110203, -0.3083,  0.0777, -0.0178,  0.0154, -0.1094, -0.4324
1491853066.9022889137,1491853066.9047009945, -0.3083,  0.0777, -0.0178,  0.0232, -0.1047, -0.4128
1491853066.9050719738,1491853066.9073719978, -0.3083,  0.1011, -0.0173,  0.0175, -0.1047, -0.4128
1491853066.9077429771,1491853066.9100489616, -0.2983,  0.1005, -0.0173,  0.0175, -0.1047, -0.4128
1491853066.9104199409,1491853066.9127171040, -0.2983,  0.1005, -0.0173,  0.0175, -0.1047, -0.4128
1491853066.9130880833,1491853066.9155099392, -0.2983,  0.1005, -0.0173,  0.0208, -0.1034, -0.3969
1491853066.9158880711,1491853066.9183139801, -0.2983,  0.1005, -0.0173,  0.0208, -0.1034, -0.3969
1491853066.9186930656,1491853066.9211161137, -0.2983,  0.1005, -0.0173,  0.0208, -0.1034, -0.3969
1491853066.9214949608,1491853066.9239270687, -0.2983,  0.1005, -0.0173,  0.0208, -0.1034, -0.3969
1491853066.9243049622,1491853066.9267261028, -0.2983,  0.1005, -0.0173,  0.0272, -0.1037, -0.3820
1491853066.9271039963,1491853066.9299600124, -0.2840,  0.1007, -0.0206,  0.0272, -0.1037, -0.3820
1491853066.9303350449,1491853066.9326310158, -0.2840,  0.1007, -0.0206,  0.0272, -0.1037, -0.3820
1491853066.9330010414,1491853066.9354410172, -0.2840,  0.1007, -0.0206,  0.0272, -0.1022, -0.3653
1491853066.9358129501,1491853066.9381148815, -0.2840,  0.1007, -0.0206,  0.0363, -0.1022, -0.3653
1491853066.9384849072,1491853066.9407770634, -0.2840,  0.1007, -0.0206,  0.0363, -0.1022, -0.3653
1491853066.9411489964,1491853066.9434421062, -0.2840,  0.1007, -0.0206,  0.0363, -0.1022, -0.3653
1491853066.9438140392,1491853066.9462330341, -0.2840,  0.1007, -0.0206,  0.0434, -0.1006, -0.3460
1491853066.9466030598,1491853066.9488999844, -0.2661,  0.0820, -0.0385,  0.0434, -0.1006, -0.3460
1491853066.9492709637,1491853066.9515640736, -0.2661,  0.0820, -0.0385,  0.0434, -0.1006, -0.3460
1491853066.9519340992,1491853066.9542820454, -0.2661,  0.0820, -0.0385,  0.0434, -0.1006, -0.3460
1491853066.9546530247,1491853066.9569458961, -0.2661,  0.0820, -0.0385,  0.0448, -0.0956, -0.3227
1491853066.9573171139,1491853066.9596168995, -0.2661,  0.0820, -0.0385,  0.0448, -0.0956, -0.3227
1491853066.9599850178,1491853066.9622800350, -0.2661,  0.0820, -0.0385,  0.0448, -0.0956, -0.3227
1491853066.9626479149,1491853066.9649488926, -0.2661,  0.0820, -0.0385,  0.0448, -0.0956, -0.3227
1491853066.9653189182,1491853066.9676160812, -0.2385,  0.0757, -0.0495,  0.0348, -0.0910, -0.3010
1491853066.9679830074,1491853066.9702739716, -0.2385,  0.0757, -0.0495,  0.0348, -0.0910, -0.3010
1491853066.9706449509,1491853066.9729349613, -0.2385,  0.0757, -0.0495,  0.0348, -0.0910, -0.3010
1491853066.9733049870,1491853066.9757189751, -0.2385,  0.0757, -0.0495,  0.0348, -0.0910, -0.3010
1491853066.9760940075,1491853066.9785099030, -0.2385,  0.0757, -0.0495,  0.0204, -0.0816, -0.2793
1491853066.9788858891,1491853066.9813039303, -0.2385,  0.0757, -0.0495,  0.0204, -0.0816, -0.2793
1491853066.9816799164,1491853066.9840960503, -0.2385,  0.0757, -0.0495,  0.0204, -0.0816, -0.2793
1491853066.9844720364,1491853066.9868800640, -0.2385,  0.0937, -0.0455,  0.0204, -0.0629, -0.2531
1491853066.9872560501,1491853066.9896719456, -0.2217,  0.0937, -0.0455,  0.0081, -0.0629, -0.2531
1491853066.9900469780,1491853066.9924540520, -0.2217,  0.0937, -0.0455,  0.0081, -0.0629, -0.2531
1491853066.9928300381,1491853066.9952769279, -0.2217,  0.0937, -0.0455,  0.0081, -0.0629, -0.2531
1491853066.9956510067,1491853066.9980471134, -0.2217,  0.0937, -0.0455, -0.0009, -0.0431, -0.2195
1491853066.9984209538,1491853067.0008020401, -0.2217,  0.0937, -0.0455, -0.0009, -0.0431, -0.2195
1491853067.0011770725,1491853067.0035679340, -0.2217,  0.0937, -0.0455, -0.0009, -0.0431, -0.2195
1491853067.0039410591,1491853067.0062620640, -0.2217,  0.0937, -0.0502, -0.0009, -0.0431, -0.2195
1491853067.0067389011,1491853067.0090439320, -0.2014,  0.1106, -0.0502, -0.0090, -0.0306, -0.1771
1491853067.0094149113,1491853067.0117230415, -0.2014,  0.1106, -0.0502, -0.0090, -0.0306, -0.1771
1491853067.0120921135,1491853067.0145180225, -0.2014,  0.1106, -0.0502, -0.0090, -0.0306, -0.1771
1491853067.0148971081,1491853067.0173220634, -0.2014,  0.1106, -0.0502, -0.0090, -0.0306, -0.1246
1491853067.0177021027,1491853067.0201280117, -0.2014,  0.1106, -0.0502, -0.0165, -0.0204, -0.1246
1491853067.0205039978,1491853067.0229310989, -0.2014,  0.1106, -0.0502, -0.0165, -0.0204, -0.1246
1491853067.0233080387,1491853067.0257480145, -0.2014,  0.1106, -0.0502, -0.0165, -0.0204, -0.1246
1491853067.0261249542,1491853067.0285489559, -0.1943,  0.1388, -0.0418, -0.0211, -0.0114, -0.0636
1491853067.0289239883,1491853067.0313470364, -0.1943,  0.1388, -0.0418, -0.0211, -0.0114, -0.0636
1491853067.0317239761,1491853067.0341639519, -0.1943,  0.1388, -0.0418, -0.0211, -0.0114, -0.0636
1491853067.0345389843,1491853067.0369639397, -0.1943,  0.1388, -0.0418, -0.0211, -0.0114, -0.0636
1491853067.0373411179,1491853067.0397648811, -0.1943,  0.1388, -0.0418, -0.0215, -0.0031, -0.0011
1491853067.0401420593,1491853067.0425748825, -0.1943,  0.1388, -0.0418, -0.0215, -0.0031, -0.0011
1491853067.0429520607,1491853067.0453219414, -0.1943,  0.1388, -0.0418, -0.0215, -0.0031, -0.0011
1491853067.0456929207,1491853067.0479979515, -0.1847,  0.1578, -0.0548, -0.0215, -0.0031,  0.0536
1491853067.0483679771,1491853067.0506739616, -0.1847,  0.1578, -0.0548, -0.0221,  0.0020,  0.0503
1491853067.0510420799,1491853067.0533440113, -0.1847,  0.1578, -0.0548, -0.0221,  0.0020,  0.0503
1491853067.0537118912,1491853067.0563321114, -0.1847,  0.1578, -0.0548, -0.0221,  0.0020,  0.0503
1491853067.0567049980,1491853067.0590000153, -0.1847,  0.1578, -0.0548, -0.0299,  0.0081,  0.0872
1491853067.0593700409,1491853067.0616860390, -0.1847,  0.1578, -0.0548, -0.0256,  0.0081,  0.0872
1491853067.0620560646,1491853067.0645051003, -0.1847,  0.1578, -0.0548, -0.0256,  0.0081,  0.0872
1491853067.0648760796,1491853067.0671749115, -0.2044,  0.1277, -0.0445, -0.0256,  0.0081,  0.0872
1491853067.0675449371,1491853067.0698471069, -0.2044,  0.1277, -0.0445, -0.0353,  0.0223,  0.1176
1491853067.0702149868,1491853067.0725131035, -0.2044,  0.1277, -0.0445, -0.0353,  0.0223,  0.1176
1491853067.0728828907,1491853067.0752999783, -0.2044,  0.1277, -0.0445, -0.0353,  0.0223,  0.1176
1491853067.0756709576,1491853067.0779719353, -0.2044,  0.1277, -0.0445, -0.0353,  0.0223,  0.1176
1491853067.0783410072,1491853067.0806410313, -0.2044,  0.1277, -0.0445, -0.0359,  0.0177,  0.1644
1491853067.0810101032,1491853067.0833060741, -0.2044,  0.1277, -0.0445, -0.0359,  0.0177,  0.1644
1491853067.0836720467,1491853067.0861248970, -0.2044, -0.0113,  0.0548, -0.0359,  0.0177,  0.1644
1491853067.0864949226,1491853067.0888209343, -0.4155, -0.0113,  0.0548, -0.0359,  0.0177,  0.1644
1491853067.0891909599,1491853067.0914890766, -0.4155, -0.0113,  0.0548,  0.0714, -0.0045,  0.2773
1491853067.0918600559,1491853067.0941600800, -0.4155, -0.0113,  0.0548,  0.0714, -0.0045,  0.2773
1491853067.0945301056,1491853067.0968310833, -0.4155, -0.0113,  0.0548,  0.0714, -0.0045,  0.2773
1491853067.0971999168,1491853067.0994970798, -0.4155, -0.0113,  0.0548,  0.0714, -0.0045,  0.1992
1491853067.0998659134,1491853067.1023728848, -0.4155, -0.0113,  0.0548,  0.1046,  0.0839,  0.2031
1491853067.1027450562,1491853067.1050739288, -0.4155, -0.0113,  0.0392,  0.1046,  0.0839,  0.2031
1491853067.1054461002,1491853067.1077439785, -0.1938, -0.2609,  0.0394,  0.1046,  0.0839,  0.2031
1491853067.1081159115,1491853067.1104140282, -0.1938, -0.2609,  0.0394,  0.1046,  0.0222,  0.1940
1491853067.1107831001,1491853067.1130890846, -0.1938, -0.2609,  0.0394,  0.0836,  0.0222,  0.1940
1491853067.1134579182,1491853067.1158959866, -0.1938, -0.2609,  0.0394,  0.0836,  0.0222,  0.1940
1491853067.1162719727,1491853067.1187000275, -0.1938, -0.2609,  0.0394,  0.0836,  0.0222,  0.1940
1491853067.1190791130,1491853067.1215040684, -0.1938, -0.2609,  0.0394,  0.0238,  0.0106,  0.3050
1491853067.1220009327,1491853067.1244699955, -0.1938, -0.2609,  0.0394,  0.0238,  0.0106,  0.3050
1491853067.1248459816,1491853067.1272780895, -0.1509, -0.0263,  0.0303,  0.0238,  0.0106,  0.3050
1491853067.1276559830,1491853067.1300790310, -0.1509, -0.0263,  0.0303,  0.0238,  0.0106,  0.3050
1491853067.1304550171,1491853067.1328771114, -0.1509, -0.0263,  0.0303, -0.1061,  0.0449,  0.3900
1491853067.1332540512,1491853067.1356089115, -0.1509, -0.0263,  0.0303, -0.1061,  0.0449,  0.3900
1491853067.1359798908,1491853067.1382820606, -0.1509, -0.0263,  0.0303, -0.1061,  0.0449,  0.3900
1491853067.1386530399,1491853067.1409480572, -0.1509, -0.0263,  0.0303, -0.1061,  0.0449,  0.3680
1491853067.1413199902,1491853067.1436269283, -0.1509, -0.0263,  0.0303, -0.1252, -0.0054,  0.3680
1491853067.1439960003,1491853067.1463260651, -0.2250,  0.1186, -0.0362, -0.1252, -0.0054,  0.3680
1491853067.1466979980,1491853067.1490080357, -0.2250,  0.1186, -0.0362, -0.1252, -0.0054,  0.3680
1491853067.1493780613,1491853067.1516768932, -0.2250,  0.1186, -0.0362, -0.0627, -0.0093,  0.3238
1491853067.1520469189,1491853067.1544799805, -0.2250,  0.1186, -0.0362, -0.0635, -0.0093,  0.3238
1491853067.1548519135,1491853067.1571578979, -0.2250,  0.1186, -0.0362, -0.0635, -0.0093,  0.3238
1491853067.1575279236,1491853067.1598260403, -0.2250,  0.1186, -0.0362, -0.0635, -0.0093,  0.3238
1491853067.1601960659,1491853067.1624970436, -0.2250,  0.1186, -0.0362, -0.0195,  0.0012,  0.2875
1491853067.1628689766,1491853067.1652779579, -0.2250,  0.0598, -0.0039, -0.0195,  0.0012,  0.2875
1491853067.1656548977,1491853067.1680669785, -0.2308,  0.0598, -0.0039, -0.0195,  0.0012,  0.2875
1491853067.1684451103,1491853067.1708629131, -0.2308,  0.0598, -0.0039, -0.0195,  0.0012,  0.2875
1491853067.1712400913,1491853067.1736519337, -0.2308,  0.0598, -0.0039,  0.0320,  0.0079,  0.2398
1491853067.1740689278,1491853067.1764559746, -0.2308,  0.0598, -0.0039,  0.0320,  0.0079,  0.2398
1491853067.1768300533,1491853067.1792199612, -0.2308,  0.0598, -0.0039,  0.0320,  0.0079,  0.2398
1491853067.1795969009,1491853067.1821899414, -0.2308,  0.0598, -0.0039,  0.0320,  0.0001,  0.2208
1491853067.1825630665,1491853067.1850559711, -0.2308,  0.0364,  0.0267,  0.0379,  0.0028,  0.2208
1491853067.1854250431,1491853067.1877250671, -0.1882,  0.0328,  0.0267,  0.0379,  0.0028,  0.2208
1491853067.1880950928,1491853067.1903879642, -0.1882,  0.0328,  0.0267,  0.0379,  0.0028,  0.2208
1491853067.1907570362,1491853067.1930580139, -0.1882,  0.0328,  0.0267, -0.0228, -0.0151,  0.2018
1491853067.1934280396,1491853067.1958389282, -0.1882,  0.0328,  0.0267, -0.0228, -0.0151,  0.2018
1491853067.1962080002,1491853067.1985070705, -0.1882,  0.0328,  0.0267, -0.0228, -0.0151,  0.2018
1491853067.1988739967,1491853067.2011809349, -0.1882,  0.0328,  0.0267, -0.0228, -0.0151,  0.2018
1491853067.2015500069,1491853067.2038409710, -0.1882,  0.0328,  0.0267, -0.0765, -0.0100,  0.1663
1491853067.2042109966,1491853067.2065041065, -0.1982,  0.0778,  0.0429, -0.0765, -0.0100,  0.1663
1491853067.2068729401,1491853067.2091751099, -0.1982,  0.0778,  0.0429, -0.0765, -0.0100,  0.1663
1491853067.2095448971,1491853067.2118411064, -0.1982,  0.0778,  0.0429, -0.0765, -0.0100,  0.1663
1491853067.2122108936,1491853067.2145171165, -0.1982,  0.0778,  0.0429, -0.0268,  0.0162,  0.1222
1491853067.2148849964,1491853067.2171831131, -0.1982,  0.0778,  0.0429, -0.0268,  0.0162,  0.1222
1491853067.2175519466,1491853067.2198460102, -0.1982,  0.0778,  0.0429, -0.0268,  0.0162,  0.1222
1491853067.2202160358,1491853067.2225160599, -0.1982,  0.0778,  0.0429, -0.0268,  0.0162,  0.1222
1491853067.2228848934,1491853067.2269520760, -0.1797,  0.0146, -0.0102, -0.0023,  0.0281,  0.1096
1491853067.2273380756,1491853067.2296309471, -0.1797,  0.0146, -0.0102, -0.0023,  0.0281,  0.1096
1491853067.2300040722,1491853067.2322990894, -0.1797,  0.0146, -0.0102, -0.0023,  0.0281,  0.1096
1491853067.2326710224,1491853067.2350409031, -0.1797,  0.0146, -0.0102, -0.0164,  0.0277,  0.1058
1491853067.2355430126,1491853067.2378399372, -0.1797,  0.0146, -0.0102, -0.0164,  0.0277,  0.1058
1491853067.2382099628,1491853067.2405049801, -0.1797,  0.0146, -0.0102, -0.0164,  0.0277,  0.1058
1491853067.2408750057,1491853067.2431700230, -0.1797,  0.0146, -0.0102, -0.0164,  0.0277,  0.1058
1491853067.2435400486,1491853067.2458550930, -0.1848,  0.0021,  0.0135,  0.0088,  0.0323,  0.0775
1491853067.2462251186,1491853067.2485220432, -0.1848,  0.0021,  0.0135,  0.0088,  0.0323,  0.0775
1491853067.2488911152,1491853067.2511889935, -0.1848,  0.0021,  0.0135,  0.0088,  0.0323,  0.0775
1491853067.2515580654,1491853067.2538609505, -0.1848,  0.0021,  0.0135,  0.0088,  0.0323,  0.0656
1491853067.2542290688,1491853067.2565240860, -0.1848,  0.0021,  0.0135,  0.0110,  0.0318,  0.0656
1491853067.2568929195,1491853067.2591950893, -0.1848,  0.0021,  0.0135,  0.0110,  0.0318,  0.0656
1491853067.2595651150,1491853067.2618539333, -0.1848,  0.0021,  0.0135,  0.0110,  0.0318,  0.0656
1491853067.2622220516,1491853067.2645359039, -0.1848,  0.0133,  0.0099,  0.0110,  0.0240,  0.0638
1491853067.2649049759,1491853067.2672109604, -0.1843,  0.0133,  0.0099,  0.0094,  0.0299,  0.0638
1491853067.2675819397,1491853067.2698841095, -0.1843,  0.0133,  0.0099,  0.0094,  0.0299,  0.0638
1491853067.2702529430,1491853067.2725470066, -0.1843,  0.0133,  0.0099,  0.0094,  0.0299,  0.0638
1491853067.2729160786,1491853067.2752749920, -0.1843,  0.0133,  0.0099,  0.0133,  0.0256,  0.0534
1491853067.2756450176,1491853067.2779378891, -0.1843,  0.0133,  0.0099,  0.0133,  0.0256,  0.0534
1491853067.2783069611,1491853067.2806069851, -0.1843,  0.0133,  0.0099,  0.0133,  0.0256,  0.0534
1491853067.2809770107,1491853067.2832720280, -0.1843,  0.0133,  0.0099,  0.0133,  0.0256,  0.0534
1491853067.2836410999,1491853067.2860150337, -0.1823,  0.0057, -0.0232,  0.0132,  0.0217,  0.0463
1491853067.2863829136,1491853067.2886819839, -0.1823,  0.0057, -0.0232,  0.0132,  0.0217,  0.0463
1491853067.2890520096,1491853067.2913479805, -0.1823,  0.0057, -0.0232,  0.0132,  0.0217,  0.0463
1491853067.2917180061,1491853067.2940139771, -0.1823,  0.0057, -0.0232,  0.0132,  0.0217,  0.0463
1491853067.2944529057,1491853067.2967560291, -0.1823,  0.0057, -0.0232,  0.0110,  0.0108,  0.0407
1491853067.2971260548,1491853067.2994229794, -0.1823,  0.0057, -0.0232,  0.0110,  0.0108,  0.0407
1491853067.2997899055,1491853067.3020930290, -0.1823,  0.0057, -0.0232,  0.0110,  0.0108,  0.0407
1491853067.3024621010,1491853067.3047640324, -0.1865,  0.0030, -0.0146,  0.0110,  0.0108,  0.0407
1491853067.3051331043,1491853067.3074378967, -0.1865,  0.0030, -0.0146,  0.0040, -0.0022,  0.0371
1491853067.3078091145,1491853067.3101119995, -0.1865,  0.0030, -0.0146,  0.0040, -0.0022,  0.0371
1491853067.3104820251,1491853067.3127770424, -0.1865,  0.0030, -0.0146,  0.0040, -0.0022,  0.0371
1491853067.3131470680,1491853067.3154530525, -0.1865,  0.0030, -0.0146,  0.0040, -0.0022,  0.0371
1491853067.3158230782,1491853067.3181269169, -0.1865,  0.0030, -0.0146, -0.0033, -0.0102,  0.0323
1491853067.3184969425,1491853067.3207941055, -0.1865,  0.0030, -0.0146, -0.0033, -0.0102,  0.0323
1491853067.3211638927,1491853067.3234610558, -0.1865,  0.0030, -0.0006, -0.0033, -0.0102,  0.0323
1491853067.3238320351,1491853067.3263070583, -0.1925,  0.0069, -0.0006, -0.0033, -0.0102,  0.0262
1491853067.3266839981,1491853067.3291139603, -0.1925,  0.0069, -0.0006, -0.0023, -0.0136,  0.0262
1491853067.3294920921,1491853067.3319239616, -0.1925,  0.0069, -0.0006, -0.0023, -0.0136,  0.0262
1491853067.3322989941,1491853067.3347339630, -0.1925,  0.0069, -0.0006, -0.0023, -0.0136,  0.0262
1491853067.3351109028,1491853067.3375399113, -0.1925,  0.0069, -0.0006,  0.0020, -0.0119,  0.0250
1491853067.3379158974,1491853067.3403439522, -0.1925,  0.0069, -0.0006,  0.0020, -0.0119,  0.0250
1491853067.3407220840,1491853067.3431460857, -0.1925,  0.0069,  0.0141,  0.0020, -0.0119,  0.0250
1491853067.3435239792,1491853067.3458681107, -0.1900,  0.0097,  0.0141,  0.0020, -0.0119,  0.0250
1491853067.3462409973,1491853067.3485369682, -0.1900,  0.0097,  0.0141,  0.0039, -0.0089,  0.0236
1491853067.3490240574,1491853067.3513278961, -0.1900,  0.0097,  0.0141,  0.0039, -0.0089,  0.0236
1491853067.3516979218,1491853067.3540039062, -0.1900,  0.0097,  0.0141,  0.0039, -0.0089,  0.0236
1491853067.3544919491,1491853067.3568000793, -0.1900,  0.0097,  0.0141,  0.0039, -0.0089,  0.0208
1491853067.3571729660,1491853067.3594698906, -0.1900,  0.0097,  0.0141,  0.0064, -0.0053,  0.0208
1491853067.3598411083,1491853067.3621480465, -0.1900,  0.0097,  0.0141,  0.0064, -0.0053,  0.0208
1491853067.3625190258,1491853067.3649051189, -0.1909,  0.0162,  0.0197,  0.0064, -0.0053,  0.0208
1491853067.3652820587,1491853067.3677129745, -0.1909,  0.0162,  0.0197,  0.0064, -0.0001,  0.0185
1491853067.3680911064,1491853067.3705110550, -0.1909,  0.0162,  0.0197,  0.0110, -0.0001,  0.0185
1491853067.3708889484,1491853067.3733160496, -0.1909,  0.0162,  0.0197,  0.0110, -0.0001,  0.0185
1491853067.3736920357,1491853067.3761320114, -0.1909,  0.0162,  0.0197,  0.0110, -0.0001,  0.0185
1491853067.3765079975,1491853067.3789329529, -0.1909,  0.0162,  0.0197,  0.0136,  0.0070,  0.0128
1491853067.3793098927,1491853067.3817319870, -0.1909,  0.0162,  0.0197,  0.0136,  0.0070,  0.0128
1491853067.3821089268,1491853067.3845500946, -0.1895,  0.0133,  0.0134,  0.0136,  0.0070,  0.0128
1491853067.3849270344,1491853067.3873519897, -0.1895,  0.0133,  0.0134,  0.0136,  0.0070,  0.0128
1491853067.3877279758,1491853067.3901579380, -0.1895,  0.0133,  0.0134,  0.0110,  0.0117,  0.0079
1491853067.3905360699,1491853067.3929650784, -0.1895,  0.0133,  0.0134,  0.0110,  0.0117,  0.0079
1491853067.3933410645,1491853067.3957760334, -0.1895,  0.0133,  0.0134,  0.0110,  0.0117,  0.0079
1491853067.3961529732,1491853067.3985810280, -0.1895,  0.0133,  0.0134,  0.0110,  0.0143,  0.0059
1491853067.3989579678,1491853067.4013791084, -0.1895,  0.0133,  0.0134,  0.0094,  0.0143,  0.0059
1491853067.4017560482,1491853067.4041750431, -0.1870,  0.0084,  0.0027,  0.0094,  0.0143,  0.0059
1491853067.4045450687,1491853067.4068510532, -0.1870,  0.0084,  0.0027,  0.0094,  0.0143,  0.0059
1491853067.4072210789,1491853067.4095230103, -0.1870,  0.0084,  0.0027,  0.0068,  0.0147,  0.0054
1491853067.4098920822,1491853067.4121949673, -0.1870,  0.0084,  0.0027,  0.0068,  0.0147,  0.0054
1491853067.4125669003,1491853067.4149401188, -0.1870,  0.0084,  0.0027,  0.0068,  0.0147,  0.0054
1491853067.4153180122,1491853067.4177420139, -0.1870,  0.0084,  0.0027,  0.0068,  0.0147,  0.0054
1491853067.4181210995,1491853067.4205539227, -0.1870,  0.0084,  0.0027,  0.0032,  0.0129,  0.0049
1491853067.4209320545,1491853067.4233551025, -0.1873,  0.0080,  0.0026,  0.0032,  0.0129,  0.0049
1491853067.4237320423,1491853067.4261679649, -0.1873,  0.0080,  0.0026,  0.0032,  0.0129,  0.0049
1491853067.4265449047,1491853067.4289760590, -0.1873,  0.0080,  0.0026,  0.0032,  0.0129,  0.0050
1491853067.4293529987,1491853067.4317779541, -0.1873,  0.0080,  0.0026,  0.0026,  0.0112,  0.0050
1491853067.4321589470,1491853067.4346249104, -0.1873,  0.0080,  0.0026,  0.0026,  0.0112,  0.0050
1491853067.4350030422,1491853067.4374299049, -0.1873,  0.0080,  0.0026,  0.0026,  0.0112,  0.0050
1491853067.4378080368,1491853067.4402348995, -0.1873,  0.0080,  0.0026,  0.0038,  0.0125,  0.0060
1491853067.4406130314,1491853067.4430439472, -0.1951,  0.0106,  0.0059,  0.0038,  0.0125,  0.0060
1491853067.4434220791,1491853067.4458990097, -0.1885,  0.0106,  0.0059,  0.0038,  0.0125,  0.0060
1491853067.4462780952,1491853067.4487009048, -0.1885,  0.0106,  0.0059,  0.0038,  0.0125,  0.0060
1491853067.4490768909,1491853067.4515109062, -0.1885,  0.0106,  0.0059,  0.0058,  0.0150,  0.0051
1491853067.4518890381,1491853067.4543170929, -0.1885,  0.0106,  0.0059,  0.0058,  0.0150,  0.0051
1491853067.4546880722,1491853067.4569909573, -0.1885,  0.0106,  0.0059,  0.0058,  0.0150,  0.0051
1491853067.4573628902,1491853067.4596660137, -0.1885,  0.0106,  0.0059,  0.0058,  0.0150,  0.0050
1491853067.4600360394,1491853067.4623339176, -0.1885,  0.0106,  0.0151,  0.0051,  0.0180,  0.0050
1491853067.4627048969,1491853067.4650540352, -0.1907,  0.0096,  0.0151,  0.0051,  0.0180,  0.0050
1491853067.4655480385,1491853067.4678459167, -0.1907,  0.0096,  0.0151,  0.0051,  0.0180,  0.0050
1491853067.4682159424,1491853067.4705119133, -0.1907,  0.0096,  0.0151,  0.0051,  0.0215,  0.0062
1491853067.4708819389,1491853067.4731819630, -0.1907,  0.0096,  0.0151,  0.0052,  0.0215,  0.0062
1491853067.4735538960,1491853067.4759690762, -0.1907,  0.0096,  0.0151,  0.0052,  0.0215,  0.0062
1491853067.4763469696,1491853067.4787750244, -0.1907,  0.0096,  0.0151,  0.0052,  0.0215,  0.0062
1491853067.4791519642,1491853067.4815800190, -0.1907,  0.0096,  0.0151,  0.0070,  0.0253,  0.0079
1491853067.4819569588,1491853067.4843869209, -0.1882,  0.0112,  0.0100,  0.0070,  0.0253,  0.0079
1491853067.4847650528,1491853067.4871919155, -0.1882,  0.0112,  0.0100,  0.0070,  0.0253,  0.0079
1491853067.4875690937,1491853067.4899950027, -0.1882,  0.0112,  0.0100,  0.0070,  0.0253,  0.0079
1491853067.4903740883,1491853067.4927980900, -0.1882,  0.0112,  0.0100,  0.0087,  0.0271,  0.0101
1491853067.4931759834,1491853067.4956119061, -0.1882,  0.0112,  0.0100,  0.0087,  0.0271,  0.0101
1491853067.4959890842,1491853067.4984149933, -0.1882,  0.0112,  0.0100,  0.0087,  0.0271,  0.0101
1491853067.4987940788,1491853067.5012199879, -0.1882,  0.0112,  0.0100,  0.0087,  0.0271,  0.0126
1491853067.5015959740,1491853067.5040609837, -0.1866,  0.0086,  0.0002,  0.0119,  0.0291,  0.0126
1491853067.5044379234,1491853067.5068640709, -0.1866,  0.0086,  0.0002,  0.0119,  0.0291,  0.0126
1491853067.5072379112,1491853067.5096681118, -0.1866,  0.0086,  0.0002,  0.0119,  0.0291,  0.0126
1491853067.5100450516,1491853067.5124669075, -0.1866,  0.0086,  0.0002,  0.0137,  0.0297,  0.0157
1491853067.5128440857,1491853067.5152170658, -0.1866,  0.0086,  0.0002,  0.0137,  0.0297,  0.0157
1491853067.5155849457,1491853067.5178890228, -0.1866,  0.0086,  0.0002,  0.0137,  0.0297,  0.0157
1491853067.5182569027,1491853067.5205600262, -0.1866,  0.0086,  0.0002,  0.0137,  0.0297,  0.0157
1491853067.5209290981,1491853067.5232400894, -0.1875,  0.0092, -0.0005,  0.0146,  0.0283,  0.0185
1491853067.5236110687,1491853067.5260159969, -0.1875,  0.0092, -0.0005,  0.0146,  0.0283,  0.0185
1491853067.5263929367,1491853067.5288209915, -0.1875,  0.0092, -0.0005,  0.0146,  0.0283,  0.0185
1491853067.5291960239,1491853067.5316259861, -0.1875,  0.0092, -0.0005,  0.0146,  0.0283,  0.0185
1491853067.5320050716,1491853067.5344669819, -0.1875,  0.0092, -0.0005,  0.0150,  0.0277,  0.0213
1491853067.5348429680,1491853067.5372700691, -0.1875,  0.0092, -0.0005,  0.0150,  0.0277,  0.0213
1491853067.5376460552,1491853067.5400750637, -0.1875,  0.0092, -0.0005,  0.0150,  0.0277,  0.0213
1491853067.5404529572,1491853067.5428791046, -0.1909,  0.0113,  0.0062,  0.0140,  0.0290,  0.0243
1491853067.5432560444,1491853067.5456919670, -0.1909,  0.0113,  0.0062,  0.0140,  0.0290,  0.0243
1491853067.5460689068,1491853067.5484929085, -0.1909,  0.0113,  0.0062,  0.0140,  0.0290,  0.0243
1491853067.5488688946,1491853067.5512940884, -0.1909,  0.0113,  0.0062,  0.0140,  0.0290,  0.0243
1491853067.5516710281,1491853067.5541119576, -0.1909,  0.0113,  0.0062,  0.0143,  0.0320,  0.0272
1491853067.5544888973,1491853067.5569128990, -0.1909,  0.0113,  0.0062,  0.0143,  0.0320,  0.0272
1491853067.5572888851,1491853067.5601289272, -0.1909,  0.0113,  0.0062,  0.0143,  0.0320,  0.0272
1491853067.5605010986,1491853067.5627961159, -0.1924,  0.0106,  0.0114,  0.0143,  0.0320,  0.0308
1491853067.5631639957,1491853067.5656321049, -0.1924,  0.0106,  0.0114,  0.0141,  0.0342,  0.0308
1491853067.5659999847,1491853067.5683031082, -0.1924,  0.0106,  0.0114,  0.0141,  0.0342,  0.0308
1491853067.5686719418,1491853067.5709629059, -0.1924,  0.0106,  0.0114,  0.0141,  0.0342,  0.0308
1491853067.5713329315,1491853067.5736219883, -0.1924,  0.0106,  0.0114,  0.0141,  0.0358,  0.0348
1491853067.5739910603,1491853067.5762960911, -0.1924,  0.0106,  0.0114,  0.0146,  0.0358,  0.0348
1491853067.5766649246,1491853067.5789630413, -0.1924,  0.0106,  0.0114,  0.0146,  0.0358,  0.0348
1491853067.5793299675,1491853067.5816240311, -0.1924,  0.0171,  0.0056,  0.0146,  0.0358,  0.0348
1491853067.5821061134,1491853067.5844569206, -0.1922,  0.0171,  0.0056,  0.0175,  0.0376,  0.0360
1491853067.5848269463,1491853067.5871150494, -0.1922,  0.0171,  0.0056,  0.0175,  0.0376,  0.0360
1491853067.5874860287,1491853067.5897829533, -0.1922,  0.0171,  0.0056,  0.0175,  0.0376,  0.0360
1491853067.5901510715,1491853067.5924439430, -0.1922,  0.0171,  0.0056,  0.0175,  0.0376,  0.0360
1491853067.5928130150,1491853067.5951149464, -0.1922,  0.0171,  0.0056,  0.0208,  0.0396,  0.0360
1491853067.5954849720,1491853067.5977869034, -0.1922,  0.0171,  0.0056,  0.0208,  0.0396,  0.0360
1491853067.5981559753,1491853067.6004528999, -0.1922,  0.0171,  0.0056,  0.0208,  0.0396,  0.0360
1491853067.6008219719,1491853067.6031160355, -0.1906,  0.0175, -0.0007,  0.0208,  0.0396,  0.0360
1491853067.6034860611,1491853067.6059319973, -0.1906,  0.0175, -0.0007,  0.0230,  0.0411,  0.0346
1491853067.6063079834,1491853067.6087319851, -0.1906,  0.0175, -0.0007,  0.0230,  0.0411,  0.0346
1491853067.6091070175,1491853067.6115400791, -0.1906,  0.0175, -0.0007,  0.0230,  0.0411,  0.0346
