timestamp_before,timestamp_after,accel_x,accel_y,accel_z,gyro_x,gyro_y,gryo_z
1491853178.4104979038,1491853178.4130918980, -0.1877,  0.0080, -0.0052,  0.0063,  0.0036, -0.0134
1491853178.4135539532,1491853178.4163908958, -0.2200,  0.0085, -0.0052,  0.0063,  0.0036, -0.0134
1491853178.4167699814,1491853178.4190649986, -0.2200,  0.0085, -0.0052,  0.0063,  0.0036, -0.0148
1491853178.4194350243,1491853178.4217340946, -0.2200,  0.0085, -0.0052,  0.0066,  0.0040, -0.0148
1491853178.4221050739,1491853178.4244780540, -0.2200,  0.0085, -0.0052,  0.0066,  0.0040, -0.0148
1491853178.4249169827,1491853178.4272370338, -0.1875,  0.0073, -0.0066,  0.0066,  0.0040, -0.0148
1491853178.4276061058,1491853178.4299030304, -0.1875,  0.0073, -0.0066,  0.0074,  0.0042, -0.0128
1491853178.4302749634,1491853178.4325730801, -0.1875,  0.0073, -0.0066,  0.0074,  0.0042, -0.0128
1491853178.4329431057,1491853178.4354751110, -0.1875,  0.0073, -0.0066,  0.0074,  0.0042, -0.0128
1491853178.4358479977,1491853178.4381461143, -0.1875,  0.0073, -0.0066,  0.0074,  0.0042, -0.0128
1491853178.4385159016,1491853178.4408140182, -0.1875,  0.0073, -0.0066,  0.0076,  0.0040, -0.0121
1491853178.4411840439,1491853178.4434831142, -0.1875,  0.0073, -0.0066,  0.0076,  0.0040, -0.0121
1491853178.4438529015,1491853178.4464619160, -0.1879,  0.0071, -0.0071,  0.0076,  0.0040, -0.0121
1491853178.4468340874,1491853178.4491319656, -0.1879,  0.0071, -0.0071,  0.0076,  0.0040, -0.0121
1491853178.4495029449,1491853178.4519619942, -0.1879,  0.0071, -0.0071,  0.0064,  0.0041, -0.0132
1491853178.4523320198,1491853178.4546918869, -0.1879,  0.0071, -0.0071,  0.0064,  0.0041, -0.0132
1491853178.4550631046,1491853178.4573600292, -0.1879,  0.0071, -0.0071,  0.0064,  0.0041, -0.0132
1491853178.4577300549,1491853178.4600241184, -0.1879,  0.0071, -0.0071,  0.0064,  0.0041, -0.0127
1491853178.4603929520,1491853178.4626920223, -0.1879,  0.0071, -0.0071,  0.0062,  0.0044, -0.0127
1491853178.4630639553,1491853178.4655070305, -0.1886,  0.0076, -0.0065,  0.0062,  0.0044, -0.0127
1491853178.4658849239,1491853178.4682970047, -0.1886,  0.0076, -0.0065,  0.0062,  0.0044, -0.0127
1491853178.4686729908,1491853178.4710819721, -0.1886,  0.0076, -0.0065,  0.0062,  0.0046, -0.0127
1491853178.4714579582,1491853178.4738640785, -0.1886,  0.0076, -0.0065,  0.0062,  0.0046, -0.0127
1491853178.4742510319,1491853178.4766600132, -0.1886,  0.0076, -0.0065,  0.0062,  0.0046, -0.0127
1491853178.4770369530,1491853178.4794440269, -0.1886,  0.0076, -0.0065,  0.0062,  0.0046, -0.0127
1491853178.4798190594,1491853178.4822258949, -0.1886,  0.0076, -0.0065,  0.0062,  0.0050, -0.0124
1491853178.4826018810,1491853178.4850099087, -0.1886,  0.0081, -0.0067,  0.0062,  0.0050, -0.0124
1491853178.4853820801,1491853178.4876849651, -0.1882,  0.0081, -0.0067,  0.0062,  0.0050, -0.0124
1491853178.4880540371,1491853178.4903519154, -0.1882,  0.0081, -0.0067,  0.0062,  0.0050, -0.0124
1491853178.4907209873,1491853178.4930479527, -0.1882,  0.0081, -0.0067,  0.0064,  0.0049, -0.0128
1491853178.4934179783,1491853178.4957458973, -0.1882,  0.0081, -0.0067,  0.0064,  0.0049, -0.0128
1491853178.4961159229,1491853178.4984149933, -0.1882,  0.0081, -0.0067,  0.0064,  0.0049, -0.0128
1491853178.4987840652,1491853178.5010879040, -0.1882,  0.0081, -0.0067,  0.0064,  0.0049, -0.0128
1491853178.5014588833,1491853178.5037589073, -0.1882,  0.0081, -0.0067,  0.0064,  0.0048, -0.0134
1491853178.5043079853,1491853178.5067100525, -0.1871,  0.0083, -0.0055,  0.0064,  0.0048, -0.0134
1491853178.5070860386,1491853178.5094709396, -0.1871,  0.0083, -0.0055,  0.0064,  0.0048, -0.0134
1491853178.5098440647,1491853178.5123550892, -0.1871,  0.0083, -0.0055,  0.0064,  0.0047, -0.0135
1491853178.5127279758,1491853178.5153748989, -0.1871,  0.0083, -0.0055,  0.0061,  0.0047, -0.0135
1491853178.5157489777,1491853178.5180449486, -0.1871,  0.0083, -0.0055,  0.0061,  0.0047, -0.0135
1491853178.5184159279,1491853178.5208148956, -0.1871,  0.0083, -0.0055,  0.0061,  0.0047, -0.0135
1491853178.5211870670,1491853178.5234820843, -0.1871,  0.0083, -0.0055,  0.0056,  0.0046, -0.0142
1491853178.5251419544,1491853178.5278909206, -0.1866,  0.0077, -0.0081,  0.0056,  0.0046, -0.0142
1491853178.5284070969,1491853178.5307049751, -0.1866,  0.0077, -0.0081,  0.0056,  0.0046, -0.0142
1491853178.5310769081,1491853178.5333719254, -0.1866,  0.0077, -0.0081,  0.0056,  0.0047, -0.0148
1491853178.5337419510,1491853178.5361609459, -0.1866,  0.0077, -0.0081,  0.0056,  0.0047, -0.0148
1491853178.5365340710,1491853178.5388300419, -0.1866,  0.0077, -0.0081,  0.0056,  0.0047, -0.0148
1491853178.5392019749,1491853178.5414910316, -0.1866,  0.0077, -0.0081,  0.0056,  0.0047, -0.0148
1491853178.5418610573,1491853178.5441639423, -0.1866,  0.0081, -0.0042,  0.0054,  0.0031, -0.0154
1491853178.5445339680,1491853178.5468320847, -0.1876,  0.0081, -0.0042,  0.0054,  0.0031, -0.0154
1491853178.5472040176,1491853178.5494968891, -0.1876,  0.0081, -0.0042,  0.0054,  0.0031, -0.0154
1491853178.5498669147,1491853178.5521609783, -0.1876,  0.0081, -0.0042,  0.0054,  0.0031, -0.0154
1491853178.5525310040,1491853178.5548870564, -0.1876,  0.0081, -0.0042,  0.0059,  0.0024, -0.0158
1491853178.5552589893,1491853178.5575580597, -0.1876,  0.0081, -0.0042,  0.0059,  0.0024, -0.0158
1491853178.5579290390,1491853178.5602231026, -0.1876,  0.0081, -0.0042,  0.0059,  0.0024, -0.0158
1491853178.5605940819,1491853178.5628840923, -0.1876,  0.0081, -0.0042,  0.0059,  0.0024, -0.0160
1491853178.5632541180,1491853178.5656259060, -0.1874,  0.0083, -0.0061,  0.0057,  0.0029, -0.0160
1491853178.5659968853,1491853178.5682959557, -0.1874,  0.0083, -0.0061,  0.0057,  0.0029, -0.0160
1491853178.5686669350,1491853178.5709679127, -0.1874,  0.0083, -0.0061,  0.0057,  0.0029, -0.0160
1491853178.5713400841,1491853178.5736379623, -0.1874,  0.0083, -0.0061,  0.0057,  0.0028, -0.0172
1491853178.5740079880,1491853178.5764780045, -0.1874,  0.0083, -0.0061,  0.0063,  0.0028, -0.0172
1491853178.5768489838,1491853178.5791499615, -0.1874,  0.0083, -0.0061,  0.0063,  0.0028, -0.0172
1491853178.5795190334,1491853178.5818231106, -0.1874,  0.0083, -0.0061,  0.0063,  0.0028, -0.0172
1491853178.5821928978,1491853178.5846939087, -0.1870,  0.0082, -0.0076,  0.0063,  0.0027, -0.0180
1491853178.5850660801,1491853178.5873680115, -0.1870,  0.0082, -0.0076,  0.0063,  0.0027, -0.0180
1491853178.5877389908,1491853178.5900421143, -0.1870,  0.0082, -0.0076,  0.0063,  0.0027, -0.0180
1491853178.5904119015,1491853178.5927131176, -0.1870,  0.0082, -0.0076,  0.0063,  0.0027, -0.0180
1491853178.5930840969,1491853178.5954959393, -0.1870,  0.0082, -0.0076,  0.0068,  0.0021, -0.0191
1491853178.5958731174,1491853178.5982859135, -0.1870,  0.0082, -0.0076,  0.0068,  0.0021, -0.0191
1491853178.5986630917,1491853178.6010739803, -0.1870,  0.0082, -0.0076,  0.0068,  0.0021, -0.0191
1491853178.6014499664,1491853178.6038599014, -0.1870,  0.0082, -0.0079,  0.0068,  0.0021, -0.0191
1491853178.6042449474,1491853178.6066529751, -0.1862,  0.0082, -0.0079,  0.0078,  0.0014, -0.0202
1491853178.6070280075,1491853178.6094369888, -0.1862,  0.0082, -0.0079,  0.0078,  0.0014, -0.0202
1491853178.6098139286,1491853178.6122260094, -0.1862,  0.0082, -0.0079,  0.0078,  0.0014, -0.0202
1491853178.6126029491,1491853178.6150600910, -0.1862,  0.0082, -0.0079,  0.0078,  0.0001, -0.0198
1491853178.6154370308,1491853178.6178500652, -0.1862,  0.0082, -0.0079,  0.0071,  0.0001, -0.0198
1491853178.6182279587,1491853178.6206350327, -0.1862,  0.0082, -0.0079,  0.0071,  0.0001, -0.0198
1491853178.6210100651,1491853178.6234190464, -0.1862,  0.0082, -0.0081,  0.0071,  0.0001, -0.0198
1491853178.6237940788,1491853178.6262080669, -0.1861,  0.0082, -0.0081,  0.0057, -0.0014, -0.0209
1491853178.6265840530,1491853178.6289939880, -0.1861,  0.0082, -0.0081,  0.0057, -0.0014, -0.0209
1491853178.6293709278,1491853178.6317849159, -0.1861,  0.0082, -0.0081,  0.0057, -0.0014, -0.0209
1491853178.6321599483,1491853178.6345639229, -0.1861,  0.0082, -0.0081,  0.0057, -0.0014, -0.0209
1491853178.6349360943,1491853178.6372320652, -0.1861,  0.0082, -0.0081,  0.0056, -0.0020, -0.0229
1491853178.6376008987,1491853178.6401278973, -0.1861,  0.0082, -0.0081,  0.0056, -0.0020, -0.0229
1491853178.6406180859,1491853178.6429150105, -0.1861,  0.0082, -0.0085,  0.0056, -0.0020, -0.0229
1491853178.6432869434,1491853178.6457419395, -0.1865,  0.0058, -0.0085,  0.0056, -0.0015, -0.0225
1491853178.6461200714,1491853178.6485450268, -0.1865,  0.0058, -0.0085,  0.0052, -0.0015, -0.0225
1491853178.6489250660,1491853178.6513540745, -0.1865,  0.0058, -0.0085,  0.0052, -0.0015, -0.0225
1491853178.6517350674,1491853178.6541769505, -0.1865,  0.0058, -0.0085,  0.0052, -0.0015, -0.0225
1491853178.6545538902,1491853178.6569840908, -0.1865,  0.0058, -0.0085,  0.0029, -0.0012, -0.0251
1491853178.6573629379,1491853178.6597869396, -0.1865,  0.0058, -0.0085,  0.0029, -0.0012, -0.0251
1491853178.6601660252,1491853178.6625959873, -0.1865,  0.0058, -0.0006,  0.0029, -0.0012, -0.0251
1491853178.6629729271,1491853178.6654109955, -0.1872,  0.0072, -0.0048,  0.0029, -0.0012, -0.0251
1491853178.6657888889,1491853178.6682190895, -0.1872,  0.0072, -0.0048,  0.0045, -0.0019, -0.0263
1491853178.6685960293,1491853178.6710200310, -0.1872,  0.0072, -0.0048,  0.0045, -0.0019, -0.0263
1491853178.6714000702,1491853178.6738240719, -0.1872,  0.0072, -0.0048,  0.0045, -0.0019, -0.0263
1491853178.6742110252,1491853178.6765170097, -0.1872,  0.0072, -0.0048,  0.0045, -0.0009, -0.0274
1491853178.6768870354,1491853178.6791861057, -0.1872,  0.0072, -0.0048,  0.0070, -0.0009, -0.0274
1491853178.6795539856,1491853178.6818540096, -0.1872,  0.0072, -0.0048,  0.0070, -0.0009, -0.0274
1491853178.6822249889,1491853178.6846160889, -0.1905,  0.0045, -0.0037,  0.0070, -0.0009, -0.0274
1491853178.6849880219,1491853178.6872949600, -0.1905,  0.0045, -0.0037,  0.0082, -0.0001, -0.0268
1491853178.6876649857,1491853178.6899709702, -0.1905,  0.0045, -0.0037,  0.0082, -0.0001, -0.0268
1491853178.6903409958,1491853178.6926400661, -0.1905,  0.0045, -0.0037,  0.0082, -0.0001, -0.0268
1491853178.6930088997,1491853178.6955990791, -0.1905,  0.0045, -0.0037,  0.0082, -0.0001, -0.0268
1491853178.6959888935,1491853178.6984210014, -0.1905,  0.0045, -0.0037,  0.0096, -0.0001, -0.0265
1491853178.6988000870,1491853178.7012200356, -0.1905,  0.0045, -0.0037,  0.0096, -0.0001, -0.0265
1491853178.7015979290,1491853178.7040140629, -0.1890,  0.0008, -0.0059,  0.0096, -0.0001, -0.0265
1491853178.7044379711,1491853178.7068641186, -0.1890,  0.0008, -0.0059,  0.0096, -0.0001, -0.0265
1491853178.7072420120,1491853178.7096629143, -0.1890,  0.0008, -0.0059,  0.0086,  0.0005, -0.0261
1491853178.7100410461,1491853178.7124679089, -0.1890,  0.0008, -0.0059,  0.0086,  0.0005, -0.0261
1491853178.7128460407,1491853178.7152769566, -0.1890,  0.0008, -0.0059,  0.0086,  0.0005, -0.0261
1491853178.7156550884,1491853178.7180719376, -0.1890,  0.0008, -0.0059,  0.0074,  0.0001, -0.0243
1491853178.7184500694,1491853178.7208731174, -0.1890,  0.0008, -0.0059,  0.0074,  0.0001, -0.0243
1491853178.7212510109,1491853178.7236781120, -0.1881,  0.0030, -0.0077,  0.0074,  0.0001, -0.0243
1491853178.7240650654,1491853178.7264909744, -0.1881,  0.0030, -0.0077,  0.0074,  0.0001, -0.0243
1491853178.7268719673,1491853178.7292981148, -0.1881,  0.0030, -0.0077,  0.0085, -0.0002, -0.0229
1491853178.7296769619,1491853178.7321000099, -0.1881,  0.0030, -0.0077,  0.0085, -0.0002, -0.0229
1491853178.7324800491,1491853178.7352020741, -0.1881,  0.0030, -0.0077,  0.0085, -0.0002, -0.0229
1491853178.7355780602,1491853178.7379651070, -0.1881,  0.0030, -0.0077,  0.0085, -0.0002, -0.0214
1491853178.7383399010,1491853178.7408220768, -0.1881,  0.0030, -0.0077,  0.0080, -0.0003, -0.0214
1491853178.7411980629,1491853178.7435870171, -0.1888,  0.0022, -0.0053,  0.0080, -0.0003, -0.0214
1491853178.7439560890,1491853178.7465920448, -0.1888,  0.0022, -0.0053,  0.0080, -0.0003, -0.0214
1491853178.7469720840,1491853178.7493979931, -0.1888,  0.0022, -0.0053,  0.0074,  0.0005, -0.0213
1491853178.7497758865,1491853178.7522020340, -0.1888,  0.0022, -0.0053,  0.0074,  0.0005, -0.0213
1491853178.7525780201,1491853178.7550079823, -0.1888,  0.0022, -0.0053,  0.0074,  0.0005, -0.0213
1491853178.7553880215,1491853178.7578148842, -0.1888,  0.0022, -0.0053,  0.0074,  0.0005, -0.0213
1491853178.7583119869,1491853178.7607400417, -0.1888,  0.0022, -0.0053,  0.0068,  0.0008, -0.0192
1491853178.7611179352,1491853178.7635419369, -0.1902,  0.0023,  0.0005,  0.0068,  0.0008, -0.0192
1491853178.7639200687,1491853178.7663519382, -0.1902,  0.0023,  0.0005,  0.0068,  0.0008, -0.0192
1491853178.7667269707,1491853178.7691519260, -0.1902,  0.0023,  0.0005,  0.0068,  0.0008, -0.0191
1491853178.7695279121,1491853178.7719540596, -0.1902,  0.0023,  0.0005,  0.0070,  0.0026, -0.0191
1491853178.7723300457,1491853178.7747430801, -0.1902,  0.0023,  0.0005,  0.0070,  0.0026, -0.0191
1491853178.7751131058,1491853178.7774119377, -0.1902,  0.0023,  0.0005,  0.0070,  0.0026, -0.0191
1491853178.7777819633,1491853178.7800850868, -0.1902,  0.0023,  0.0005,  0.0081,  0.0047, -0.0182
1491853178.7804551125,1491853178.7827560902, -0.1909,  0.0021,  0.0003,  0.0081,  0.0047, -0.0182
1491853178.7831230164,1491853178.7854459286, -0.1909,  0.0021,  0.0003,  0.0081,  0.0047, -0.0182
1491853178.7858150005,1491853178.7881109715, -0.1909,  0.0021,  0.0003,  0.0081,  0.0047, -0.0182
1491853178.7884809971,1491853178.7907760143, -0.1909,  0.0021,  0.0003,  0.0074,  0.0065, -0.0174
1491853178.7911450863,1491853178.7934410572, -0.1909,  0.0021,  0.0003,  0.0074,  0.0065, -0.0174
1491853178.7938120365,1491853178.7962799072, -0.1909,  0.0021,  0.0003,  0.0074,  0.0065, -0.0174
1491853178.7966489792,1491853178.7989499569, -0.1909,  0.0021,  0.0003,  0.0074,  0.0065, -0.0174
1491853178.7993190289,1491853178.8016159534, -0.1909,  0.0021, -0.0034,  0.0056,  0.0085, -0.0152
1491853178.8019859791,1491853178.8043010235, -0.1890,  0.0001, -0.0034,  0.0056,  0.0085, -0.0152
1491853178.8046720028,1491853178.8069698811, -0.1890,  0.0001, -0.0034,  0.0056,  0.0085, -0.0152
1491853178.8073420525,1491853178.8096361160, -0.1890,  0.0001, -0.0034,  0.0056,  0.0085, -0.0152
1491853178.8100059032,1491853178.8123040199, -0.1890,  0.0001, -0.0034,  0.0023,  0.0106, -0.0139
1491853178.8126740456,1491853178.8151800632, -0.1890,  0.0001, -0.0034,  0.0023,  0.0106, -0.0139
1491853178.8155579567,1491853178.8179728985, -0.1890,  0.0001, -0.0034,  0.0023,  0.0106, -0.0139
1491853178.8183510303,1491853178.8207631111, -0.1890,  0.0001, -0.0034,  0.0023,  0.0115, -0.0121
1491853178.8211390972,1491853178.8235530853, -0.1883,  0.0010, -0.0048,  0.0005,  0.0115, -0.0121
1491853178.8239290714,1491853178.8263559341, -0.1883,  0.0010, -0.0048,  0.0005,  0.0115, -0.0121
1491853178.8267309666,1491853178.8291420937, -0.1883,  0.0010, -0.0048,  0.0005,  0.0115, -0.0121
1491853178.8295159340,1491853178.8319239616, -0.1883,  0.0010, -0.0048,  0.0000,  0.0122, -0.0106
1491853178.8322999477,1491853178.8347311020, -0.1883,  0.0010, -0.0048,  0.0000,  0.0122, -0.0106
1491853178.8351080418,1491853178.8375370502, -0.1883,  0.0010, -0.0048,  0.0000,  0.0122, -0.0106
1491853178.8379149437,1491853178.8403379917, -0.1883,  0.0010, -0.0048,  0.0000,  0.0122, -0.0106
1491853178.8407139778,1491853178.8431351185, -0.1894, -0.0007, -0.0055, -0.0030,  0.0138, -0.0092
1491853178.8435120583,1491853178.8459448814, -0.1894, -0.0007, -0.0055, -0.0030,  0.0138, -0.0092
1491853178.8463220596,1491853178.8487501144, -0.1894, -0.0007, -0.0055, -0.0030,  0.0138, -0.0092
1491853178.8491249084,1491853178.8515510559, -0.1894, -0.0007, -0.0055, -0.0030,  0.0174, -0.0086
1491853178.8519279957,1491853178.8543670177, -0.1894, -0.0007, -0.0055, -0.0135,  0.0174, -0.0086
1491853178.8547439575,1491853178.8571689129, -0.1894, -0.0007, -0.0055, -0.0135,  0.0174, -0.0086
1491853178.8575448990,1491853178.8599720001, -0.1894, -0.0007, -0.0055, -0.0135,  0.0174, -0.0086
1491853178.8604059219,1491853178.8628299236, -0.1904,  0.0022, -0.0023, -0.0153,  0.0203, -0.0079
1491853178.8632071018,1491853178.8656759262, -0.1904,  0.0022, -0.0023, -0.0153,  0.0203, -0.0079
1491853178.8660531044,1491853178.8684799671, -0.1904,  0.0022, -0.0023, -0.0153,  0.0203, -0.0079
1491853178.8688559532,1491853178.8712780476, -0.1904,  0.0022, -0.0023, -0.0153,  0.0203, -0.0079
1491853178.8716559410,1491853178.8740921021, -0.1904,  0.0022, -0.0023, -0.0145,  0.0230, -0.0054
1491853178.8745770454,1491853178.8768749237, -0.1904,  0.0022, -0.0023, -0.0145,  0.0230, -0.0054
1491853178.8772459030,1491853178.8795490265, -0.1904,  0.0022, -0.0023, -0.0145,  0.0230, -0.0054
1491853178.8799200058,1491853178.8822250366, -0.1898,  0.0012, -0.0034, -0.0145,  0.0308, -0.0028
1491853178.8825950623,1491853178.8849530220, -0.1898,  0.0012, -0.0034, -0.0126,  0.0262, -0.0028
1491853178.8853309155,1491853178.8877561092, -0.1898,  0.0012, -0.0034, -0.0126,  0.0262, -0.0028
1491853178.8881320953,1491853178.8905649185, -0.1898,  0.0012, -0.0034, -0.0126,  0.0262, -0.0028
1491853178.8909430504,1491853178.8933711052, -0.1898,  0.0012, -0.0034, -0.0113,  0.0275, -0.0007
1491853178.8937489986,1491853178.8960840702, -0.1898,  0.0012, -0.0034, -0.0113,  0.0275, -0.0007
1491853178.8964550495,1491853178.8987538815, -0.1898,  0.0012, -0.0034, -0.0113,  0.0275, -0.0007
1491853178.8991229534,1491853178.9014220238, -0.1914,  0.0002, -0.0023, -0.0113,  0.0275, -0.0007
1491853178.9017910957,1491853178.9041070938, -0.1914,  0.0002, -0.0023, -0.0107,  0.0311,  0.0025
1491853178.9044780731,1491853178.9067730904, -0.1914,  0.0002, -0.0023, -0.0107,  0.0311,  0.0025
1491853178.9071409702,1491853178.9094409943, -0.1914,  0.0002, -0.0023, -0.0107,  0.0311,  0.0025
1491853178.9098110199,1491853178.9121119976, -0.1914,  0.0002, -0.0023, -0.0107,  0.0311,  0.0025
1491853178.9124829769,1491853178.9149460793, -0.1914,  0.0002, -0.0023, -0.0119,  0.0344,  0.0053
1491853178.9153149128,1491853178.9176230431, -0.1914,  0.0002, -0.0023, -0.0119,  0.0344,  0.0053
1491853178.9179930687,1491853178.9202940464, -0.1914,  0.0002, -0.0092, -0.0119,  0.0344,  0.0053
1491853178.9206619263,1491853178.9229619503, -0.1896,  0.0023, -0.0092, -0.0119,  0.0344,  0.0053
1491853178.9233319759,1491853178.9256350994, -0.1896,  0.0023, -0.0092, -0.0127,  0.0356,  0.0069
1491853178.9260048866,1491853178.9283030033, -0.1896,  0.0023, -0.0092, -0.0127,  0.0356,  0.0069
1491853178.9286720753,1491853178.9309649467, -0.1896,  0.0023, -0.0092, -0.0127,  0.0356,  0.0069
1491853178.9313349724,1491853178.9336349964, -0.1896,  0.0023, -0.0092, -0.0127,  0.0356,  0.0080
1491853178.9340059757,1491853178.9365909100, -0.1896,  0.0023, -0.0092, -0.0130,  0.0372,  0.0080
1491853178.9369699955,1491853178.9394009113, -0.1896,  0.0023, -0.0092, -0.0130,  0.0372,  0.0080
1491853178.9397790432,1491853178.9421989918, -0.1906,  0.0011, -0.0078, -0.0130,  0.0372,  0.0080
1491853178.9425768852,1491853178.9450080395, -0.1906,  0.0011, -0.0078, -0.0125,  0.0411,  0.0110
1491853178.9453859329,1491853178.9478170872, -0.1906,  0.0011, -0.0078, -0.0125,  0.0411,  0.0110
1491853178.9481940269,1491853178.9506149292, -0.1906,  0.0011, -0.0078, -0.0125,  0.0411,  0.0110
1491853178.9509930611,1491853178.9534130096, -0.1906,  0.0011, -0.0078, -0.0125,  0.0411,  0.0110
1491853178.9537930489,1491853178.9562289715, -0.1906,  0.0011, -0.0078, -0.0132,  0.0451,  0.0148
1491853178.9566080570,1491853178.9590311050, -0.1906,  0.0011, -0.0078, -0.0132,  0.0451,  0.0148
1491853178.9594089985,1491853178.9618399143, -0.1923,  0.0016, -0.0060, -0.0132,  0.0451,  0.0148
1491853178.9622159004,1491853178.9646489620, -0.1923,  0.0016, -0.0060, -0.0132,  0.0529,  0.0196
1491853178.9650208950,1491853178.9673159122, -0.1923,  0.0016, -0.0060, -0.0125,  0.0494,  0.0196
1491853178.9676859379,1491853178.9699869156, -0.1923,  0.0016, -0.0060, -0.0125,  0.0494,  0.0196
1491853178.9703569412,1491853178.9726510048, -0.1923,  0.0016, -0.0060, -0.0125,  0.0494,  0.0196
1491853178.9730210304,1491853178.9753921032, -0.1923,  0.0016, -0.0060, -0.0119,  0.0546,  0.0243
1491853178.9757668972,1491853178.9781839848, -0.1923,  0.0016, -0.0060, -0.0119,  0.0546,  0.0243
1491853178.9785630703,1491853178.9809720516, -0.1942,  0.0021, -0.0067, -0.0119,  0.0546,  0.0243
1491853178.9813480377,1491853178.9837670326, -0.1942,  0.0021, -0.0067, -0.0119,  0.0546,  0.0243
1491853178.9841539860,1491853178.9865698814, -0.1942,  0.0021, -0.0067, -0.0102,  0.0612,  0.0323
1491853178.9869470596,1491853178.9893529415, -0.1942,  0.0021, -0.0067, -0.0102,  0.0612,  0.0323
1491853178.9898400307,1491853178.9922549725, -0.1942,  0.0021, -0.0067, -0.0102,  0.0612,  0.0323
1491853178.9926319122,1491853178.9950449467, -0.1942,  0.0021, -0.0067, -0.0102,  0.0612,  0.0405
1491853178.9954209328,1491853178.9978120327, -0.1942,  0.0021, -0.0067, -0.0094,  0.0684,  0.0405
1491853178.9981889725,1491853179.0005860329, -0.2002, -0.0029, -0.0016, -0.0094,  0.0684,  0.0405
1491853179.0009629726,1491853179.0033519268, -0.2002, -0.0029, -0.0016, -0.0094,  0.0684,  0.0405
1491853179.0037269592,1491853179.0061581135, -0.2002, -0.0029, -0.0016, -0.0016,  0.0778,  0.0516
1491853179.0065369606,1491853179.0089590549, -0.2002, -0.0029, -0.0016, -0.0076,  0.0778,  0.0516
1491853179.0093350410,1491853179.0117630959, -0.2002, -0.0029, -0.0016, -0.0076,  0.0778,  0.0516
1491853179.0121400356,1491853179.0145559311, -0.2002, -0.0029, -0.0016, -0.0076,  0.0778,  0.0516
1491853179.0149269104,1491853179.0172228813, -0.2002, -0.0029, -0.0016, -0.0054,  0.0862,  0.0674
1491853179.0175940990,1491853179.0198929310, -0.2002, -0.0099,  0.0034, -0.0054,  0.0862,  0.0674
1491853179.0202639103,1491853179.0225679874, -0.2101, -0.0099,  0.0034, -0.0054,  0.0862,  0.0674
1491853179.0229370594,1491853179.0253570080, -0.2101, -0.0099,  0.0034, -0.0054,  0.0862,  0.0674
1491853179.0257339478,1491853179.0281600952, -0.2101, -0.0099,  0.0034, -0.0010,  0.0893,  0.0851
1491853179.0285389423,1491853179.0309579372, -0.2101, -0.0099,  0.0034, -0.0010,  0.0893,  0.0851
1491853179.0313370228,1491853179.0337569714, -0.2101, -0.0099,  0.0034, -0.0010,  0.0893,  0.0851
1491853179.0341451168,1491853179.0365788937, -0.2101, -0.0099,  0.0034, -0.0010,  0.0893,  0.0996
1491853179.0369579792,1491853179.0393760204, -0.2101, -0.0099,  0.0010, -0.0016,  0.0906,  0.0996
1491853179.0397529602,1491853179.0421810150, -0.2250, -0.0159,  0.0010, -0.0016,  0.0906,  0.0996
1491853179.0425589085,1491853179.0450019836, -0.2250, -0.0159,  0.0010, -0.0016,  0.0906,  0.0996
1491853179.0453801155,1491853179.0478019714, -0.2250, -0.0159,  0.0010, -0.0134,  0.0895,  0.1108
1491853179.0481789112,1491853179.0506041050, -0.2250, -0.0159,  0.0010, -0.0134,  0.0895,  0.1108
1491853179.0509829521,1491853179.0534100533, -0.2250, -0.0159,  0.0010, -0.0134,  0.0895,  0.1108
1491853179.0537889004,1491853179.0562229156, -0.2250, -0.0159,  0.0010, -0.0134,  0.0895,  0.1108
1491853179.0566000938,1491853179.0590310097, -0.2250, -0.0159, -0.0224, -0.0244,  0.0825,  0.1148
1491853179.0594069958,1491853179.0618360043, -0.3788, -0.0727, -0.0190, -0.0244,  0.0825,  0.1148
1491853179.0622138977,1491853179.0646579266, -0.3788, -0.0727, -0.0190, -0.0244,  0.0825,  0.1148
1491853179.0650279522,1491853179.0673260689, -0.3788, -0.0727, -0.0190, -0.0244,  0.0591,  0.1605
1491853179.0676949024,1491853179.0699970722, -0.3788, -0.0727, -0.0190, -0.0084,  0.0587,  0.1605
1491853179.0703659058,1491853179.0726709366, -0.3788, -0.0727, -0.0190, -0.0084,  0.0587,  0.1605
1491853179.0730400085,1491853179.0754129887, -0.3788, -0.0727, -0.0190, -0.0084,  0.0587,  0.1605
1491853179.0757908821,1491853179.0782120228, -0.3788, -0.0727, -0.0190,  0.0164,  0.1147,  0.2200
1491853179.0785899162,1491853179.0810120106, -0.3134, -0.0614, -0.0180,  0.0164,  0.1147,  0.2200
1491853179.0813879967,1491853179.0838088989, -0.3134, -0.0614, -0.0180,  0.0164,  0.1147,  0.2200
1491853179.0841970444,1491853179.0866239071, -0.3134, -0.0614, -0.0180,  0.0164,  0.1147,  0.2200
1491853179.0870020390,1491853179.0894260406, -0.3134, -0.0614, -0.0180,  0.0014,  0.1244,  0.2493
1491853179.0898010731,1491853179.0922269821, -0.3134, -0.0614, -0.0180,  0.0014,  0.1244,  0.2493
1491853179.0926029682,1491853179.0950739384, -0.3134, -0.0614, -0.0180,  0.0014,  0.1244,  0.2493
1491853179.0954520702,1491853179.0978720188, -0.3134, -0.0614, -0.0180,  0.0014,  0.1244,  0.2806
1491853179.0982470512,1491853179.1006689072, -0.3229, -0.0688, -0.0064, -0.0339,  0.1090,  0.2771
1491853179.1010448933,1491853179.1034739017, -0.3229, -0.0688, -0.0064, -0.0339,  0.1090,  0.2771
1491853179.1039550304,1491853179.1063840389, -0.3229, -0.0688, -0.0064, -0.0339,  0.1090,  0.2771
1491853179.1067609787,1491853179.1091868877, -0.3229, -0.0688, -0.0064, -0.0547,  0.1178,  0.3096
1491853179.1095640659,1491853179.1119930744, -0.3229, -0.0688, -0.0064, -0.0547,  0.1178,  0.3096
1491853179.1123700142,1491853179.1147630215, -0.3229, -0.0688, -0.0064, -0.0547,  0.1178,  0.3096
1491853179.1151340008,1491853179.1174368858, -0.3229, -0.0688, -0.0064, -0.0547,  0.1178,  0.3096
1491853179.1178059578,1491853179.1201069355, -0.2704, -0.0079,  0.0276, -0.0597,  0.1271,  0.3268
1491853179.1204760075,1491853179.1227750778, -0.2704, -0.0079,  0.0276, -0.0597,  0.1271,  0.3268
1491853179.1231429577,1491853179.1255240440, -0.2704, -0.0079,  0.0276, -0.0597,  0.1271,  0.3268
1491853179.1259000301,1491853179.1283190250, -0.2704, -0.0079,  0.0276, -0.0597,  0.1271,  0.3268
1491853179.1286969185,1491853179.1311259270, -0.2704, -0.0079,  0.0276, -0.0528,  0.1359,  0.3170
1491853179.1315019131,1491853179.1339259148, -0.2704, -0.0079,  0.0276, -0.0528,  0.1359,  0.3170
1491853179.1343019009,1491853179.1367259026, -0.2704, -0.0079,  0.0276, -0.0528,  0.1359,  0.3170
1491853179.1371040344,1491853179.1395320892, -0.3023,  0.0094,  0.0384, -0.0528,  0.1828,  0.2949
1491853179.1399068832,1491853179.1423308849, -0.3023,  0.0094,  0.0384, -0.0505,  0.1825,  0.2949
1491853179.1427071095,1491853179.1451709270, -0.3023,  0.0094,  0.0384, -0.0505,  0.1825,  0.2949
1491853179.1455481052,1491853179.1479790211, -0.3023,  0.0094,  0.0384, -0.0505,  0.1825,  0.2949
1491853179.1483550072,1491853179.1507859230, -0.3023,  0.0094,  0.0384, -0.0524,  0.2439,  0.2575
1491853179.1511631012,1491853179.1535840034, -0.3023,  0.0094,  0.0384, -0.0524,  0.2439,  0.2575
1491853179.1539590359,1491853179.1563971043, -0.3023,  0.0094,  0.0384, -0.0524,  0.2439,  0.2575
1491853179.1567749977,1491853179.1591959000, -0.0827, -0.0869,  0.0161, -0.0524,  0.2439,  0.2575
1491853179.1595730782,1491853179.1619999409, -0.0827, -0.0869,  0.0161, -0.0726,  0.2273,  0.1943
1491853179.1623749733,1491853179.1647810936, -0.0827, -0.0869,  0.0161, -0.0726,  0.2273,  0.1943
1491853179.1651511192,1491853179.1674499512, -0.0827, -0.0869,  0.0161, -0.0726,  0.2273,  0.1943
1491853179.1678209305,1491853179.1701250076, -0.0827, -0.0869,  0.0161, -0.0726,  0.2273,  0.1341
1491853179.1704940796,1491853179.1727900505, -0.0827, -0.0869,  0.0161, -0.1090,  0.1584,  0.1341
1491853179.1731588840,1491853179.1754651070, -0.0827, -0.0869,  0.0161, -0.1090,  0.1584,  0.1341
1491853179.1758360863,1491853179.1781389713, -0.0827, -0.0869,  0.0229, -0.1090,  0.1584,  0.1341
1491853179.1785070896,1491853179.1808030605, -0.1153, -0.0394,  0.0229, -0.1090,  0.1118,  0.0740
1491853179.1811730862,1491853179.1834709644, -0.1153, -0.0394,  0.0229, -0.1068,  0.1118,  0.0740
1491853179.1838409901,1491853179.1862928867, -0.1153, -0.0394,  0.0229, -0.1068,  0.1118,  0.0740
1491853179.1866691113,1491853179.1890900135, -0.1153, -0.0394,  0.0229, -0.1068,  0.1118,  0.0740
1491853179.1894650459,1491853179.1918959618, -0.1153, -0.0394,  0.0229, -0.0993,  0.0759,  0.0253
1491853179.1922709942,1491853179.1947031021, -0.1153, -0.0394,  0.0229, -0.0993,  0.0759,  0.0253
1491853179.1950790882,1491853179.1975009441, -0.1153, -0.0394,  0.0229, -0.0993,  0.0759,  0.0253
1491853179.1978769302,1491853179.2003049850, -0.1004, -0.1131,  0.0487, -0.0993,  0.0759,  0.0253
1491853179.2006819248,1491853179.2031040192, -0.1004, -0.1131,  0.0487, -0.1163,  0.0468, -0.0071
1491853179.2034800053,1491853179.2059149742, -0.1004, -0.1131,  0.0487, -0.1163,  0.0468, -0.0071
1491853179.2062931061,1491853179.2087130547, -0.1004, -0.1131,  0.0487, -0.1163,  0.0468, -0.0071
1491853179.2090919018,1491853179.2115108967, -0.1004, -0.1131,  0.0487, -0.1163,  0.0311, -0.0311
1491853179.2118868828,1491853179.2143180370, -0.1004, -0.1131,  0.0487, -0.1329,  0.0295, -0.0311
1491853179.2146959305,1491853179.2171111107, -0.1004, -0.1131,  0.0487, -0.1329,  0.0295, -0.0311
1491853179.2174870968,1491853179.2199139595, -0.0966, -0.1016,  0.0410, -0.1329,  0.0295, -0.0311
1491853179.2203989029,1491853179.2228291035, -0.0966, -0.1016,  0.0410, -0.1444,  0.0153, -0.0570
1491853179.2232079506,1491853179.2255868912, -0.0966, -0.1016,  0.0410, -0.1444,  0.0153, -0.0570
1491853179.2259550095,1491853179.2282600403, -0.0966, -0.1016,  0.0410, -0.1444,  0.0153, -0.0570
1491853179.2286300659,1491853179.2309250832, -0.0966, -0.1016,  0.0410, -0.1444,  0.0153, -0.0570
1491853179.2312939167,1491853179.2335910797, -0.0966, -0.1016,  0.0410, -0.1488, -0.0021, -0.0899
1491853179.2339599133,1491853179.2363851070, -0.0966, -0.1016,  0.0410, -0.1488, -0.0021, -0.0899
1491853179.2367630005,1491853179.2391850948, -0.0928, -0.0932,  0.0439, -0.1488, -0.0021, -0.0899
1491853179.2395610809,1491853179.2419788837, -0.0928, -0.0932,  0.0439, -0.1488, -0.0021, -0.1264
1491853179.2423539162,1491853179.2447879314, -0.0928, -0.0932,  0.0439, -0.1470, -0.0222, -0.1264
1491853179.2451651096,1491853179.2475829124, -0.0928, -0.0932,  0.0439, -0.1470, -0.0222, -0.1264
1491853179.2479588985,1491853179.2503850460, -0.0928, -0.0932,  0.0439, -0.1470, -0.0222, -0.1264
1491853179.2507610321,1491853179.2531828880, -0.0928, -0.0932,  0.0439, -0.1377, -0.0420, -0.1589
1491853179.2535591125,1491853179.2559909821, -0.0928, -0.0932,  0.0439, -0.1377, -0.0420, -0.1589
1491853179.2563669682,1491853179.2587881088, -0.1084, -0.0856,  0.0447, -0.1377, -0.0420, -0.1589
1491853179.2591650486,1491853179.2615840435, -0.1084, -0.0856,  0.0447, -0.1377, -0.0420, -0.1589
1491853179.2619609833,1491853179.2643899918, -0.1084, -0.0856,  0.0447, -0.1254, -0.0608, -0.1879
1491853179.2647678852,1491853179.2671918869, -0.1084, -0.0856,  0.0447, -0.1254, -0.0608, -0.1879
1491853179.2675669193,1491853179.2700269222, -0.1084, -0.0856,  0.0447, -0.1254, -0.0608, -0.1879
1491853179.2704041004,1491853179.2728281021, -0.1084, -0.0856,  0.0447, -0.1254, -0.0608, -0.2113
1491853179.2732028961,1491853179.2755920887, -0.1084, -0.0856,  0.0447, -0.1080, -0.0770, -0.2172
1491853179.2759630680,1491853179.2782580853, -0.1220, -0.0747,  0.0437, -0.1080, -0.0770, -0.2172
1491853179.2786300182,1491853179.2810409069, -0.1220, -0.0747,  0.0437, -0.1080, -0.0770, -0.2172
1491853179.2814109325,1491853179.2837119102, -0.1220, -0.0747,  0.0437, -0.1080, -0.0900, -0.2458
1491853179.2840929031,1491853179.2864809036, -0.1220, -0.0747,  0.0437, -0.0906, -0.0900, -0.2458
1491853179.2868559361,1491853179.2892479897, -0.1220, -0.0747,  0.0437, -0.0906, -0.0900, -0.2458
1491853179.2896399498,1491853179.2920670509, -0.1220, -0.0747,  0.0437, -0.0906, -0.0900, -0.2458
1491853179.2924439907,1491853179.2948820591, -0.1220, -0.0747,  0.0437, -0.0709, -0.1006, -0.2740
1491853179.2952589989,1491853179.2976799011, -0.1376, -0.0611,  0.0378, -0.0709, -0.1006, -0.2740
1491853179.2980558872,1491853179.3004798889, -0.1372, -0.0611,  0.0378, -0.0709, -0.1006, -0.2740
1491853179.3008580208,1491853179.3032848835, -0.1372, -0.0611,  0.0378, -0.0709, -0.1006, -0.2740
1491853179.3036611080,1491853179.3060960770, -0.1372, -0.0611,  0.0378, -0.0502, -0.1108, -0.3030
1491853179.3064739704,1491853179.3088970184, -0.1372, -0.0611,  0.0378, -0.0502, -0.1108, -0.3030
1491853179.3092730045,1491853179.3117029667, -0.1372, -0.0611,  0.0378, -0.0502, -0.1108, -0.3030
1491853179.3120799065,1491853179.3144960403, -0.1372, -0.0611,  0.0378, -0.0502, -0.1192, -0.3290
1491853179.3148651123,1491853179.3171670437, -0.1372, -0.0600,  0.0356, -0.0331, -0.1192, -0.3290
1491853179.3175349236,1491853179.3198339939, -0.1619, -0.0600,  0.0356, -0.0331, -0.1192, -0.3290
1491853179.3202021122,1491853179.3224990368, -0.1619, -0.0600,  0.0356, -0.0331, -0.1192, -0.3290
1491853179.3228690624,1491853179.3252229691, -0.1619, -0.0600,  0.0356, -0.0161, -0.1277, -0.3522
1491853179.3255920410,1491853179.3278870583, -0.1619, -0.0600,  0.0356, -0.0161, -0.1277, -0.3522
1491853179.3282558918,1491853179.3305490017, -0.1619, -0.0600,  0.0356, -0.0161, -0.1277, -0.3522
1491853179.3309168816,1491853179.3332209587, -0.1619, -0.0600,  0.0356, -0.0161, -0.1277, -0.3522
1491853179.3335900307,1491853179.3360059261, -0.1619, -0.0600,  0.0356, -0.0020, -0.1351, -0.3734
1491853179.3364970684,1491853179.3389260769, -0.1879, -0.0582,  0.0290, -0.0020, -0.1351, -0.3734
1491853179.3393030167,1491853179.3417279720, -0.1879, -0.0582,  0.0290, -0.0020, -0.1351, -0.3734
1491853179.3421049118,1491853179.3445401192, -0.1879, -0.0582,  0.0290, -0.0020, -0.1351, -0.3734
1491853179.3449161053,1491853179.3473498821, -0.1879, -0.0582,  0.0290,  0.0082, -0.1436, -0.3920
1491853179.3477280140,1491853179.3501510620, -0.1879, -0.0582,  0.0290,  0.0082, -0.1436, -0.3920
1491853179.3505280018,1491853179.3529529572, -0.1879, -0.0582,  0.0290,  0.0082, -0.1436, -0.3920
1491853179.3533298969,1491853179.3557660580, -0.1879, -0.0582,  0.0290,  0.0082, -0.1524, -0.4077
1491853179.3561429977,1491853179.3585689068, -0.2151, -0.0559,  0.0235,  0.0154, -0.1524, -0.4077
1491853179.3589448929,1491853179.3613750935, -0.2151, -0.0559,  0.0235,  0.0154, -0.1524, -0.4077
1491853179.3617529869,1491853179.3641779423, -0.2151, -0.0559,  0.0235,  0.0154, -0.1524, -0.4077
1491853179.3645529747,1491853179.3669819832, -0.2151, -0.0559,  0.0235,  0.0205, -0.1602, -0.4213
1491853179.3673589230,1491853179.3697879314, -0.2151, -0.0559,  0.0235,  0.0205, -0.1602, -0.4213
1491853179.3701639175,1491853179.3725860119, -0.2151, -0.0559,  0.0235,  0.0205, -0.1602, -0.4213
1491853179.3729619980,1491853179.3753170967, -0.2151, -0.0559,  0.0235,  0.0205, -0.1602, -0.4213
1491853179.3756849766,1491853179.3779900074, -0.2445, -0.0483,  0.0139,  0.0237, -0.1660, -0.4315
1491853179.3783590794,1491853179.3806569576, -0.2445, -0.0483,  0.0139,  0.0237, -0.1660, -0.4315
1491853179.3810250759,1491853179.3833260536, -0.2445, -0.0483,  0.0139,  0.0237, -0.1660, -0.4315
1491853179.3836939335,1491853179.3861370087, -0.2445, -0.0483,  0.0139,  0.0237, -0.1660, -0.4376
1491853179.3865120411,1491853179.3889310360, -0.2445, -0.0483,  0.0139,  0.0234, -0.1708, -0.4376
1491853179.3893070221,1491853179.3917338848, -0.2445, -0.0483,  0.0139,  0.0234, -0.1708, -0.4376
1491853179.3921079636,1491853179.3945438862, -0.2445, -0.0483,  0.0139,  0.0234, -0.1708, -0.4376
1491853179.3949201107,1491853179.3973410130, -0.2699, -0.0417,  0.0044,  0.0212, -0.1735, -0.4396
1491853179.3977169991,1491853179.4001429081, -0.2699, -0.0417,  0.0044,  0.0212, -0.1735, -0.4396
1491853179.4005200863,1491853179.4029459953, -0.2699, -0.0417,  0.0044,  0.0212, -0.1735, -0.4396
1491853179.4033219814,1491853179.4057600498, -0.2699, -0.0417,  0.0044,  0.0212, -0.1735, -0.4396
1491853179.4061350822,1491853179.4085609913, -0.2699, -0.0417,  0.0044,  0.0139, -0.1733, -0.4390
1491853179.4089379311,1491853179.4113540649, -0.2699, -0.0417,  0.0044,  0.0139, -0.1733, -0.4390
1491853179.4117300510,1491853179.4141619205, -0.2699, -0.0417,  0.0044,  0.0139, -0.1733, -0.4390
1491853179.4145379066,1491853179.4169631004, -0.2804, -0.0258, -0.0064,  0.0139, -0.1733, -0.4372
1491853179.4173390865,1491853179.4197618961, -0.2804, -0.0258, -0.0064,  0.0027, -0.1706, -0.4372
1491853179.4201409817,1491853179.4225659370, -0.2804, -0.0258, -0.0064,  0.0027, -0.1706, -0.4372
1491853179.4229431152,1491853179.4253089428, -0.2804, -0.0258, -0.0064,  0.0027, -0.1706, -0.4372
1491853179.4256780148,1491853179.4279839993, -0.2804, -0.0258, -0.0064, -0.0074, -0.1664, -0.4346
1491853179.4283530712,1491853179.4306490421, -0.2804, -0.0258, -0.0064, -0.0074, -0.1664, -0.4346
1491853179.4310190678,1491853179.4333169460, -0.2804, -0.0258, -0.0064, -0.0074, -0.1664, -0.4346
1491853179.4336879253,1491853179.4361679554, -0.2804, -0.0079, -0.0179, -0.0074, -0.1664, -0.4346
1491853179.4365439415,1491853179.4389679432, -0.2787, -0.0079, -0.0179, -0.0162, -0.1626, -0.4300
1491853179.4393429756,1491853179.4417679310, -0.2787, -0.0079, -0.0179, -0.0162, -0.1626, -0.4300
1491853179.4421429634,1491853179.4445779324, -0.2787, -0.0079, -0.0179, -0.0162, -0.1626, -0.4300
1491853179.4449529648,1491853179.4473760128, -0.2787, -0.0079, -0.0179, -0.0162, -0.1626, -0.4300
1491853179.4477510452,1491853179.4501779079, -0.2787, -0.0079, -0.0179, -0.0202, -0.1580, -0.4227
1491853179.4505538940,1491853179.4529719353, -0.2787, -0.0079, -0.0179, -0.0202, -0.1580, -0.4227
1491853179.4534618855,1491853179.4558069706, -0.2787,  0.0077, -0.0299, -0.0202, -0.1580, -0.4227
1491853179.4561760426,1491853179.4584798813, -0.2789,  0.0024, -0.0299, -0.0202, -0.1501, -0.4100
1491853179.4588499069,1491853179.4611470699, -0.2789,  0.0024, -0.0299, -0.0242, -0.1519, -0.4100
1491853179.4615149498,1491853179.4638109207, -0.2789,  0.0024, -0.0299, -0.0242, -0.1519, -0.4100
1491853179.4641950130,1491853179.4666230679, -0.2789,  0.0024, -0.0299, -0.0242, -0.1519, -0.4100
1491853179.4670009613,1491853179.4694180489, -0.2789,  0.0024, -0.0299, -0.0297, -0.1436, -0.3921
1491853179.4697940350,1491853179.4722180367, -0.2789,  0.0024, -0.0299, -0.0297, -0.1436, -0.3921
1491853179.4725949764,1491853179.4750208855, -0.2789,  0.0024, -0.0299, -0.0297, -0.1436, -0.3921
1491853179.4753921032,1491853179.4776890278, -0.2763,  0.0182, -0.0313, -0.0297, -0.1436, -0.3921
1491853179.4780580997,1491853179.4803578854, -0.2763,  0.0182, -0.0313, -0.0367, -0.1312, -0.3702
1491853179.4807260036,1491853179.4830260277, -0.2763,  0.0182, -0.0313, -0.0367, -0.1312, -0.3702
1491853179.4833939075,1491853179.4857890606, -0.2763,  0.0182, -0.0313, -0.0367, -0.1312, -0.3702
1491853179.4861660004,1491853179.4885909557, -0.2763,  0.0182, -0.0313, -0.0367, -0.1312, -0.3702
1491853179.4889669418,1491853179.4913868904, -0.2763,  0.0182, -0.0313, -0.0425, -0.1153, -0.3475
1491853179.4917631149,1491853179.4941940308, -0.2763,  0.0182, -0.0313, -0.0425, -0.1153, -0.3475
1491853179.4945690632,1491853179.4969959259, -0.2514,  0.0481, -0.0354, -0.0425, -0.1153, -0.3475
1491853179.4973731041,1491853179.4997971058, -0.2514,  0.0481, -0.0354, -0.0425, -0.0966, -0.3240
1491853179.5001730919,1491853179.5026009083, -0.2514,  0.0481, -0.0354, -0.0469, -0.0966, -0.3240
1491853179.5029780865,1491853179.5054070950, -0.2514,  0.0481, -0.0354, -0.0469, -0.0966, -0.3240
1491853179.5057840347,1491853179.5082080364, -0.2514,  0.0481, -0.0354, -0.0469, -0.0966, -0.3240
1491853179.5085830688,1491853179.5110080242, -0.2514,  0.0481, -0.0354, -0.0512, -0.0828, -0.2947
1491853179.5113859177,1491853179.5138030052, -0.2514,  0.0481, -0.0354, -0.0512, -0.0828, -0.2947
1491853179.5141880512,1491853179.5166170597, -0.2234,  0.0848, -0.0441, -0.0512, -0.0828, -0.2947
1491853179.5169930458,1491853179.5194180012, -0.2234,  0.0848, -0.0441, -0.0512, -0.0828, -0.2947
1491853179.5197958946,1491853179.5222229958, -0.2234,  0.0848, -0.0441, -0.0560, -0.0737, -0.2579
1491853179.5225980282,1491853179.5250589848, -0.2234,  0.0848, -0.0441, -0.0560, -0.0737, -0.2579
1491853179.5254290104,1491853179.5277280807, -0.2234,  0.0848, -0.0441, -0.0560, -0.0737, -0.2579
1491853179.5280969143,1491853179.5303969383, -0.2234,  0.0848, -0.0441, -0.0560, -0.0580, -0.2141
1491853179.5307641029,1491853179.5330679417, -0.2234,  0.0848, -0.0441, -0.0587, -0.0612, -0.2141
1491853179.5334370136,1491853179.5358879566, -0.2055,  0.1401, -0.0388, -0.0587, -0.0612, -0.2141
1491853179.5362648964,1491853179.5386950970, -0.2055,  0.1401, -0.0388, -0.0587, -0.0612, -0.2141
1491853179.5390710831,1491853179.5414910316, -0.2055,  0.1401, -0.0388, -0.0512, -0.0481, -0.1643
1491853179.5418670177,1491853179.5442950726, -0.2055,  0.1401, -0.0388, -0.0512, -0.0481, -0.1643
1491853179.5446710587,1491853179.5471038818, -0.2055,  0.1401, -0.0388, -0.0512, -0.0481, -0.1643
1491853179.5474810600,1491853179.5499041080, -0.2055,  0.1401, -0.0388, -0.0512, -0.0481, -0.1643
1491853179.5502789021,1491853179.5527060032, -0.2055,  0.1401, -0.0388, -0.0402, -0.0367, -0.1049
1491853179.5530829430,1491853179.5555219650, -0.1989,  0.1667, -0.0417, -0.0402, -0.0367, -0.1049
1491853179.5558979511,1491853179.5583209991, -0.1989,  0.1667, -0.0417, -0.0402, -0.0367, -0.1049
1491853179.5586960316,1491853179.5611269474, -0.1989,  0.1667, -0.0417, -0.0402, -0.0367, -0.0425
1491853179.5615029335,1491853179.5639250278, -0.1989,  0.1667, -0.0417, -0.0263, -0.0250, -0.0425
1491853179.5642919540,1491853179.5665879250, -0.1989,  0.1667, -0.0417, -0.0263, -0.0250, -0.0425
1491853179.5669569969,1491853179.5692560673, -0.1989,  0.1667, -0.0417, -0.0263, -0.0250, -0.0425
1491853179.5697329044,1491853179.5720300674, -0.1989,  0.1667, -0.0417, -0.0158, -0.0112,  0.0207
1491853179.5723989010,1491853179.5747320652, -0.1989,  0.1667, -0.0452, -0.0158, -0.0112,  0.0207
1491853179.5751059055,1491853179.5775160789, -0.2137,  0.1695, -0.0452, -0.0158, -0.0112,  0.0207
1491853179.5778899193,1491853179.5803000927, -0.2137,  0.1695, -0.0452, -0.0158, -0.0112,  0.0207
1491853179.5806729794,1491853179.5830891132, -0.2137,  0.1695, -0.0452, -0.0142,  0.0068,  0.0804
1491853179.5834639072,1491853179.5858910084, -0.2137,  0.1695, -0.0452, -0.0142,  0.0068,  0.0804
1491853179.5862700939,1491853179.5886809826, -0.2137,  0.1695, -0.0452, -0.0142,  0.0068,  0.0804
1491853179.5890579224,1491853179.5914731026, -0.2137,  0.1695, -0.0452, -0.0142,  0.0068,  0.0804
1491853179.5918500423,1491853179.5942680836, -0.2137,  0.1695, -0.0555, -0.0143,  0.0293,  0.1342
1491853179.5946419239,1491853179.5970849991, -0.2229,  0.1693, -0.0555, -0.0143,  0.0293,  0.1342
1491853179.5974628925,1491853179.5998909473, -0.2229,  0.1693, -0.0555, -0.0143,  0.0293,  0.1342
1491853179.6002650261,1491853179.6026859283, -0.2229,  0.1693, -0.0555, -0.0143,  0.0507,  0.1797
1491853179.6030609608,1491853179.6055009365, -0.2229,  0.1693, -0.0555, -0.0172,  0.0507,  0.1797
1491853179.6058769226,1491853179.6082959175, -0.2229,  0.1693, -0.0555, -0.0172,  0.0507,  0.1797
1491853179.6086709499,1491853179.6110930443, -0.2229,  0.1693, -0.0555, -0.0172,  0.0507,  0.1797
1491853179.6114699841,1491853179.6138989925, -0.2229,  0.1693, -0.0946, -0.0163,  0.0648,  0.2133
1491853179.6142849922,1491853179.6165819168, -0.4098, -0.0391, -0.0980, -0.0163,  0.0648,  0.2133
1491853179.6169540882,1491853179.6192500591, -0.4098, -0.0391, -0.0980, -0.0163,  0.0648,  0.2133
1491853179.6196188927,1491853179.6219201088, -0.4098, -0.0391, -0.0980, -0.0163,  0.0648,  0.2133
1491853179.6222879887,1491853179.6246719360, -0.4098, -0.0391, -0.0980,  0.0496,  0.0382,  0.2505
1491853179.6250479221,1491853179.6274769306, -0.4098, -0.0391, -0.0980,  0.0496,  0.0382,  0.2505
1491853179.6278529167,1491853179.6302750111, -0.4098, -0.0391, -0.0980,  0.0496,  0.0382,  0.2505
1491853179.6306529045,1491853179.6330730915, -0.4098, -0.0391, -0.0980,  0.0496,  0.0382,  0.1991
1491853179.6334490776,1491853179.6358890533, -0.1071, -0.5184,  0.0636, -0.0142,  0.1105,  0.1991
1491853179.6362669468,1491853179.6386840343, -0.1071, -0.5184,  0.0636, -0.0142,  0.1105,  0.1991
1491853179.6390628815,1491853179.6414890289, -0.1071, -0.5184,  0.0636, -0.0142,  0.1105,  0.1991
1491853179.6418669224,1491853179.6443040371, -0.1071, -0.5184,  0.0636, -0.1150,  0.0407,  0.2376
1491853179.6446790695,1491853179.6470999718, -0.1071, -0.5184,  0.0636, -0.1150,  0.0407,  0.2376
1491853179.6474790573,1491853179.6499080658, -0.1071, -0.5184,  0.0636, -0.1150,  0.0407,  0.2376
1491853179.6502859592,1491853179.6527090073, -0.1071, -0.5184,  0.0636, -0.1150,  0.0407,  0.2376
1491853179.6530859470,1491853179.6554770470, -0.1581,  0.1800, -0.0169, -0.0787,  0.0239,  0.6176
1491853179.6558470726,1491853179.6581521034, -0.1581,  0.1800, -0.0169, -0.0787,  0.0239,  0.6176
1491853179.6585209370,1491853179.6608231068, -0.1581,  0.1800, -0.0169, -0.0787,  0.0239,  0.6176
1491853179.6611909866,1491853179.6634910107, -0.1581,  0.1800, -0.0169, -0.0787,  0.0239,  0.6176
1491853179.6638610363,1491853179.6662180424, -0.1581,  0.1800, -0.0169, -0.1096,  0.0643,  0.6111
1491853179.6665871143,1491853179.6688840389, -0.1581,  0.1800, -0.0169, -0.1096,  0.0643,  0.6111
1491853179.6692531109,1491853179.6715590954, -0.1581,  0.1800, -0.0169, -0.1096,  0.0643,  0.6111
1491853179.6719260216,1491853179.6742858887, -0.1972,  0.0338, -0.0286, -0.1096,  0.0643,  0.3545
1491853179.6746609211,1491853179.6770880222, -0.1990,  0.0338, -0.0286,  0.0273,  0.0409,  0.3545
1491853179.6774630547,1491853179.6798889637, -0.1990,  0.0338, -0.0286,  0.0273,  0.0409,  0.3545
1491853179.6802639961,1491853179.6826899052, -0.1990,  0.0338, -0.0286,  0.0273,  0.0409,  0.3545
1491853179.6831650734,1491853179.6855978966, -0.1990,  0.0338, -0.0286, -0.0105,  0.0188,  0.3022
1491853179.6859779358,1491853179.6884078979, -0.1990,  0.0338, -0.0286, -0.0105,  0.0188,  0.3022
1491853179.6887838840,1491853179.6912040710, -0.1990,  0.0338, -0.0286, -0.0105,  0.0188,  0.3022
1491853179.6915791035,1491853179.6940050125, -0.1990,  0.0086, -0.0244, -0.0105,  0.0188,  0.3022
1491853179.6944301128,1491853179.6968560219, -0.2229,  0.0086, -0.0244, -0.0414, -0.0052,  0.2941
1491853179.6972329617,1491853179.6996560097, -0.2229,  0.0086, -0.0244, -0.0414, -0.0052,  0.2941
1491853179.7000329494,1491853179.7024579048, -0.2229,  0.0086, -0.0244, -0.0414, -0.0052,  0.2941
1491853179.7028360367,1491853179.7052071095, -0.2229,  0.0086, -0.0244, -0.0414, -0.0052,  0.2747
1491853179.7055790424,1491853179.7078750134, -0.2229,  0.0086, -0.0244, -0.0198,  0.0052,  0.2747
1491853179.7082440853,1491853179.7105460167, -0.2229,  0.0086, -0.0244, -0.0198,  0.0052,  0.2747
1491853179.7109160423,1491853179.7132139206, -0.2229,  0.0086,  0.0126, -0.0198,  0.0052,  0.2747
1491853179.7135839462,1491853179.7159929276, -0.1780,  0.0664,  0.0126, -0.0042, -0.0037,  0.2494
1491853179.7163701057,1491853179.7187960148, -0.1780,  0.0664,  0.0126, -0.0046, -0.0037,  0.2494
1491853179.7191739082,1491853179.7215979099, -0.1780,  0.0664,  0.0126, -0.0046, -0.0037,  0.2494
1491853179.7219750881,1491853179.7244069576, -0.1780,  0.0664,  0.0126, -0.0046, -0.0037,  0.2494
1491853179.7247829437,1491853179.7272019386, -0.1780,  0.0664,  0.0126, -0.0142, -0.0078,  0.2108
1491853179.7275779247,1491853179.7299990654, -0.1780,  0.0664,  0.0126, -0.0142, -0.0078,  0.2108
1491853179.7303779125,1491853179.7328069210, -0.1780,  0.0664,  0.0126, -0.0142, -0.0078,  0.2108
1491853179.7331840992,1491853179.7356069088, -0.1951,  0.0477,  0.0100, -0.0142, -0.0078,  0.2108
1491853179.7359840870,1491853179.7384140491, -0.1951,  0.0477,  0.0100, -0.0075, -0.0045,  0.1763
1491853179.7387909889,1491853179.7412109375, -0.1951,  0.0477,  0.0100, -0.0075, -0.0045,  0.1763
1491853179.7415869236,1491853179.7440569401, -0.1951,  0.0477,  0.0100, -0.0075, -0.0045,  0.1763
1491853179.7444350719,1491853179.7468659878, -0.1951,  0.0477,  0.0100,  0.0081,  0.0042,  0.1500
1491853179.7472429276,1491853179.7496609688, -0.1951,  0.0477,  0.0100,  0.0112,  0.0042,  0.1500
1491853179.7500400543,1491853179.7524609566, -0.1951,  0.0477,  0.0100,  0.0112,  0.0042,  0.1500
1491853179.7528369427,1491853179.7552158833, -0.1927,  0.0380, -0.0013,  0.0112,  0.0042,  0.1500
1491853179.7555849552,1491853179.7578780651, -0.1927,  0.0380, -0.0013,  0.0083, -0.0002,  0.1308
1491853179.7582480907,1491853179.7605509758, -0.1927,  0.0380, -0.0013,  0.0083, -0.0002,  0.1308
1491853179.7609229088,1491853179.7632191181, -0.1927,  0.0380, -0.0013,  0.0083, -0.0002,  0.1308
1491853179.7635900974,1491853179.7659990788, -0.1927,  0.0380, -0.0013,  0.0083, -0.0002,  0.1308
1491853179.7663769722,1491853179.7688028812, -0.1927,  0.0380, -0.0013,  0.0005, -0.0023,  0.1045
1491853179.7691810131,1491853179.7716050148, -0.1927,  0.0380, -0.0013,  0.0005, -0.0023,  0.1045
1491853179.7719850540,1491853179.7744500637, -0.1979,  0.0180,  0.0255,  0.0005, -0.0023,  0.1045
1491853179.7748270035,1491853179.7772569656, -0.1979,  0.0180,  0.0255,  0.0005, -0.0023,  0.0800
1491853179.7776339054,1491853179.7800569534, -0.1979,  0.0180,  0.0255,  0.0135,  0.0121,  0.0800
1491853179.7804338932,1491853179.7828660011, -0.1979,  0.0180,  0.0255,  0.0135,  0.0121,  0.0800
1491853179.7832419872,1491853179.7856769562, -0.1979,  0.0180,  0.0255,  0.0135,  0.0121,  0.0800
1491853179.7860519886,1491853179.7884728909, -0.1979,  0.0180,  0.0255,  0.0199,  0.0206,  0.0639
1491853179.7888469696,1491853179.7912740707, -0.1979,  0.0180,  0.0255,  0.0199,  0.0206,  0.0639
1491853179.7916479111,1491853179.7940819263, -0.1852,  0.0131, -0.0064,  0.0199,  0.0206,  0.0639
1491853179.7944500446,1491853179.7967441082, -0.1852,  0.0131, -0.0064,  0.0199,  0.0206,  0.0639
1491853179.7971129417,1491853179.7994110584, -0.1852,  0.0131, -0.0064,  0.0203,  0.0198,  0.0518
1491853179.7998869419,1491853179.8021829128, -0.1852,  0.0131, -0.0064,  0.0203,  0.0198,  0.0518
1491853179.8025519848,1491853179.8048939705, -0.1852,  0.0131, -0.0064,  0.0203,  0.0198,  0.0518
1491853179.8052630424,1491853179.8075599670, -0.1852,  0.0131, -0.0064,  0.0203,  0.0198,  0.0518
1491853179.8079299927,1491853179.8102240562, -0.1852,  0.0131, -0.0064,  0.0219,  0.0169,  0.0387
1491853179.8105919361,1491853179.8128919601, -0.1852, -0.0015, -0.0066,  0.0219,  0.0169,  0.0387
1491853179.8132619858,1491853179.8156030178, -0.1874, -0.0015, -0.0066,  0.0219,  0.0169,  0.0387
1491853179.8159739971,1491853179.8182709217, -0.1874, -0.0015, -0.0066,  0.0219,  0.0169,  0.0329
1491853179.8186390400,1491853179.8209400177, -0.1874, -0.0015, -0.0066,  0.0244,  0.0128,  0.0329
1491853179.8213109970,1491853179.8236029148, -0.1874, -0.0015, -0.0066,  0.0244,  0.0128,  0.0329
1491853179.8239719868,1491853179.8264029026, -0.1874, -0.0015, -0.0066,  0.0244,  0.0128,  0.0329
1491853179.8267810345,1491853179.8291969299, -0.1874, -0.0015, -0.0066,  0.0165,  0.0085,  0.0280
1491853179.8295760155,1491853179.8319981098, -0.1874, -0.0015,  0.0013,  0.0229,  0.0085,  0.0280
1491853179.8323800564,1491853179.8348529339, -0.1877, -0.0027,  0.0052,  0.0229,  0.0085,  0.0280
1491853179.8352289200,1491853179.8376519680, -0.1877, -0.0027,  0.0052,  0.0229,  0.0085,  0.0280
1491853179.8380289078,1491853179.8404500484, -0.1877, -0.0027,  0.0052,  0.0191,  0.0058,  0.0233
1491853179.8408250809,1491853179.8432519436, -0.1877, -0.0027,  0.0052,  0.0191,  0.0058,  0.0233
1491853179.8436310291,1491853179.8460628986, -0.1877, -0.0027,  0.0052,  0.0191,  0.0058,  0.0233
1491853179.8464400768,1491853179.8488659859, -0.1877, -0.0027,  0.0052,  0.0191,  0.0058,  0.0233
1491853179.8492419720,1491853179.8516650200, -0.1877, -0.0027,  0.0052,  0.0186,  0.0055,  0.0209
1491853179.8520441055,1491853179.8544759750, -0.1888, -0.0052,  0.0116,  0.0186,  0.0055,  0.0209
1491853179.8548529148,1491853179.8572800159, -0.1888, -0.0052,  0.0116,  0.0186,  0.0055,  0.0209
1491853179.8576560020,1491853179.8600769043, -0.1888, -0.0052,  0.0116,  0.0186,  0.0063,  0.0204
1491853179.8604528904,1491853179.8628780842, -0.1888, -0.0052,  0.0116,  0.0208,  0.0063,  0.0204
1491853179.8632550240,1491853179.8656139374, -0.1888, -0.0052,  0.0116,  0.0208,  0.0063,  0.0204
1491853179.8659830093,1491853179.8682789803, -0.1888, -0.0052,  0.0116,  0.0208,  0.0063,  0.0204
1491853179.8686490059,1491853179.8709518909, -0.1888, -0.0052,  0.0116,  0.0236,  0.0083,  0.0192
1491853179.8713209629,1491853179.8736131191, -0.1873, -0.0019,  0.0057,  0.0236,  0.0083,  0.0192
1491853179.8739829063,1491853179.8764109612, -0.1873, -0.0019,  0.0057,  0.0236,  0.0083,  0.0192
1491853179.8767910004,1491853179.8792159557, -0.1873, -0.0019,  0.0057,  0.0236,  0.0083,  0.0192
1491853179.8795940876,1491853179.8820190430, -0.1873, -0.0019,  0.0057,  0.0259,  0.0106,  0.0182
1491853179.8823969364,1491853179.8848628998, -0.1873, -0.0019,  0.0057,  0.0259,  0.0106,  0.0182
1491853179.8852419853,1491853179.8876669407, -0.1873, -0.0019,  0.0057,  0.0259,  0.0106,  0.0182
1491853179.8880450726,1491853179.8904700279, -0.1873, -0.0019,  0.0057,  0.0259,  0.0106,  0.0170
1491853179.8908460140,1491853179.8932759762, -0.1884,  0.0028,  0.0139,  0.0271,  0.0132,  0.0170
1491853179.8936519623,1491853179.8960831165, -0.1884,  0.0028,  0.0139,  0.0271,  0.0132,  0.0170
1491853179.8964600563,1491853179.8988831043, -0.1884,  0.0028,  0.0139,  0.0271,  0.0132,  0.0170
1491853179.8992578983,1491853179.9016840458, -0.1884,  0.0028,  0.0139,  0.0285,  0.0157,  0.0146
1491853179.9020600319,1491853179.9045009613, -0.1884,  0.0028,  0.0139,  0.0285,  0.0157,  0.0146
1491853179.9048779011,1491853179.9073019028, -0.1884,  0.0028,  0.0139,  0.0285,  0.0157,  0.0146
1491853179.9076759815,1491853179.9101068974, -0.1884,  0.0028,  0.0139,  0.0285,  0.0157,  0.0146
1491853179.9104819298,1491853179.9129049778, -0.1896, -0.0035,  0.0201,  0.0292,  0.0186,  0.0125
1491853179.9132809639,1491853179.9156389236, -0.1896, -0.0035,  0.0201,  0.0292,  0.0186,  0.0125
1491853179.9161169529,1491853179.9184141159, -0.1896, -0.0035,  0.0201,  0.0292,  0.0186,  0.0125
1491853179.9187839031,1491853179.9210820198, -0.1896, -0.0035,  0.0201,  0.0292,  0.0186,  0.0151
1491853179.9214510918,1491853179.9237530231, -0.1896, -0.0035,  0.0201,  0.0280,  0.0226,  0.0151
1491853179.9241189957,1491853179.9264190197, -0.1896, -0.0035,  0.0201,  0.0280,  0.0226,  0.0151
1491853179.9267890453,1491853179.9290819168, -0.1896, -0.0035,  0.0201,  0.0280,  0.0226,  0.0151
1491853179.9294528961,1491853179.9317510128, -0.1896, -0.0059,  0.0164,  0.0280,  0.0305,  0.0187
1491853179.9321200848,1491853179.9344930649, -0.1894, -0.0059,  0.0164,  0.0227,  0.0258,  0.0187
1491853179.9348709583,1491853179.9373009205, -0.1894, -0.0059,  0.0164,  0.0227,  0.0258,  0.0187
1491853179.9376759529,1491853179.9400980473, -0.1894, -0.0059,  0.0164,  0.0227,  0.0258,  0.0187
1491853179.9404749870,1491853179.9428970814, -0.1894, -0.0059,  0.0164,  0.0156,  0.0268,  0.0218
1491853179.9432759285,1491853179.9457159042, -0.1894, -0.0059,  0.0164,  0.0156,  0.0268,  0.0218
1491853179.9460918903,1491853179.9485099316, -0.1894, -0.0059,  0.0164,  0.0156,  0.0268,  0.0218
1491853179.9488859177,1491853179.9513149261, -0.1894,  0.0019,  0.0022,  0.0156,  0.0268,  0.0218
1491853179.9516921043,1491853179.9541320801, -0.1854,  0.0046,  0.0022,  0.0133,  0.0273,  0.0227
1491853179.9545080662,1491853179.9569320679, -0.1854,  0.0046,  0.0022,  0.0133,  0.0273,  0.0227
1491853179.9573071003,1491853179.9597370625, -0.1854,  0.0046,  0.0022,  0.0133,  0.0273,  0.0227
1491853179.9601130486,1491853179.9625380039, -0.1854,  0.0046,  0.0022,  0.0133,  0.0273,  0.0243
1491853179.9629158974,1491853179.9652869701, -0.1854,  0.0046,  0.0022,  0.0211,  0.0287,  0.0243
1491853179.9656550884,1491853179.9679579735, -0.1854,  0.0046,  0.0022,  0.0211,  0.0287,  0.0243
1491853179.9683270454,1491853179.9706289768, -0.1854,  0.0046,  0.0022,  0.0211,  0.0287,  0.0243
1491853179.9709970951,1491853179.9732949734, -0.1854,  0.0030,  0.0022,  0.0211,  0.0273,  0.0262
1491853179.9736618996,1491853179.9761109352, -0.1854,  0.0030,  0.0022,  0.0196,  0.0273,  0.0262
1491853179.9764869213,1491853179.9789109230, -0.1854,  0.0030,  0.0022,  0.0196,  0.0273,  0.0262
1491853179.9792881012,1491853179.9817171097, -0.1854,  0.0030,  0.0022,  0.0196,  0.0273,  0.0262
1491853179.9820930958,1491853179.9845271111, -0.1854,  0.0030,  0.0022,  0.0201,  0.0282,  0.0267
1491853179.9849050045,1491853179.9873249531, -0.1854,  0.0030,  0.0022,  0.0201,  0.0282,  0.0267
1491853179.9876999855,1491853179.9901299477, -0.1854,  0.0030,  0.0022,  0.0201,  0.0282,  0.0267
1491853179.9905040264,1491853179.9929211140, -0.1889,  0.0012,  0.0068,  0.0201,  0.0282,  0.0267
1491853179.9932980537,1491853179.9957320690, -0.1889,  0.0012,  0.0068,  0.0204,  0.0290,  0.0277
1491853179.9961090088,1491853179.9985361099, -0.1889,  0.0012,  0.0068,  0.0204,  0.0290,  0.0277
1491853179.9989130497,1491853180.0013360977, -0.1889,  0.0012,  0.0068,  0.0204,  0.0290,  0.0277
1491853180.0017130375,1491853180.0041460991, -0.1889,  0.0012,  0.0068,  0.0204,  0.0301,  0.0299
1491853180.0045239925,1491853180.0069439411, -0.1889,  0.0012,  0.0068,  0.0179,  0.0301,  0.0299
1491853180.0073220730,1491853180.0097448826, -0.1889,  0.0012,  0.0068,  0.0179,  0.0301,  0.0299
1491853180.0101199150,1491853180.0125501156, -0.1894,  0.0044,  0.0087,  0.0179,  0.0301,  0.0299
1491853180.0129261017,1491853180.0152990818, -0.1894,  0.0044,  0.0087,  0.0169,  0.0339,  0.0313
1491853180.0156700611,1491853180.0179719925, -0.1894,  0.0044,  0.0087,  0.0169,  0.0339,  0.0313
1491853180.0183420181,1491853180.0206420422, -0.1894,  0.0044,  0.0087,  0.0169,  0.0339,  0.0313
1491853180.0210099220,1491853180.0233108997, -0.1894,  0.0044,  0.0087,  0.0169,  0.0339,  0.0313
1491853180.0236790180,1491853180.0261640549, -0.1894,  0.0044,  0.0087,  0.0174,  0.0358,  0.0332
1491853180.0265419483,1491853180.0289580822, -0.1894,  0.0044,  0.0087,  0.0174,  0.0358,  0.0332
1491853180.0293350220,1491853180.0317609310, -0.1896,  0.0071,  0.0045,  0.0174,  0.0358,  0.0332
1491853180.0322470665,1491853180.0346860886, -0.1896,  0.0071,  0.0045,  0.0174,  0.0358,  0.0341
1491853180.0350630283,1491853180.0374860764, -0.1896,  0.0071,  0.0045,  0.0167,  0.0382,  0.0341
1491853180.0378630161,1491853180.0402889252, -0.1896,  0.0071,  0.0045,  0.0167,  0.0382,  0.0341
1491853180.0406649113,1491853180.0430920124, -0.1896,  0.0071,  0.0045,  0.0167,  0.0382,  0.0341
1491853180.0434679985,1491853180.0458970070, -0.1896,  0.0071,  0.0045,  0.0172,  0.0405,  0.0367
1491853180.0462739468,1491853180.0486989021, -0.1896,  0.0071,  0.0045,  0.0172,  0.0405,  0.0367
1491853180.0490748882,1491853180.0514979362, -0.1889,  0.0091,  0.0021,  0.0172,  0.0405,  0.0367
1491853180.0518729687,1491853180.0543079376, -0.1889,  0.0091,  0.0021,  0.0172,  0.0405,  0.0367
1491853180.0546839237,1491853180.0571019650, -0.1889,  0.0091,  0.0021,  0.0201,  0.0406,  0.0381
1491853180.0574789047,1491853180.0599060059, -0.1889,  0.0091,  0.0021,  0.0201,  0.0406,  0.0381
1491853180.0602810383,1491853180.0627019405, -0.1889,  0.0091,  0.0021,  0.0201,  0.0406,  0.0381
1491853180.0630779266,1491853180.0654449463, -0.1889,  0.0091,  0.0021,  0.0201,  0.0406,  0.0385
1491853180.0658180714,1491853180.0681118965, -0.1889,  0.0091,  0.0021,  0.0235,  0.0406,  0.0385
1491853180.0684831142,1491853180.0707840919, -0.1889,  0.0049,  0.0033,  0.0235,  0.0406,  0.0385
1491853180.0711510181,1491853180.0734488964, -0.1919,  0.0049,  0.0033,  0.0235,  0.0406,  0.0385
1491853180.0738179684,1491853180.0762960911, -0.1919,  0.0049,  0.0033,  0.0264,  0.0417,  0.0401
1491853180.0766720772,1491853180.0790998936, -0.1919,  0.0049,  0.0033,  0.0264,  0.0417,  0.0401
1491853180.0794749260,1491853180.0819010735, -0.1919,  0.0049,  0.0033,  0.0264,  0.0417,  0.0401
1491853180.0822770596,1491853180.0847120285, -0.1919,  0.0049,  0.0033,  0.0264,  0.0417,  0.0401
1491853180.0850861073,1491853180.0875051022, -0.1919,  0.0049,  0.0033,  0.0268,  0.0415,  0.0432
1491853180.0878810883,1491853180.0903000832, -0.1919,  0.0073,  0.0042,  0.0268,  0.0415,  0.0432
1491853180.0906760693,1491853180.0930991173, -0.1948,  0.0073,  0.0042,  0.0268,  0.0415,  0.0432
1491853180.0934760571,1491853180.0959091187, -0.1948,  0.0073,  0.0042,  0.0268,  0.0415,  0.0432
1491853180.0962860584,1491853180.0987100601, -0.1948,  0.0073,  0.0042,  0.0287,  0.0434,  0.0445
1491853180.0990879536,1491853180.1015179157, -0.1948,  0.0073,  0.0042,  0.0287,  0.0434,  0.0445
1491853180.1018950939,1491853180.1043229103, -0.1948,  0.0073,  0.0042,  0.0287,  0.0434,  0.0445
1491853180.1046938896,1491853180.1069869995, -0.1948,  0.0073,  0.0042,  0.0287,  0.0460,  0.0471
1491853180.1073560715,1491853180.1096549034, -0.1948,  0.0073,  0.0040,  0.0280,  0.0460,  0.0471
1491853180.1100239754,1491853180.1123259068, -0.1937,  0.0146,  0.0040,  0.0280,  0.0460,  0.0471
1491853180.1126949787,1491853180.1150960922, -0.1937,  0.0146,  0.0040,  0.0280,  0.0460,  0.0471
1491853180.1154708862,1491853180.1178939342, -0.1937,  0.0146,  0.0040,  0.0303,  0.0521,  0.0485
1491853180.1182711124,1491853180.1220529079, -0.1937,  0.0146,  0.0040,  0.0303,  0.0521,  0.0485
1491853180.1224350929,1491853180.1263139248, -0.1937,  0.0146,  0.0040,  0.0303,  0.0521,  0.0485
1491853180.1267020702,1491853180.1310369968, -0.2015,  0.0091,  0.0136,  0.0321,  0.0579,  0.0497
1491853180.1318640709,1491853180.1356270313, -0.2002,  0.0091,  0.0136,  0.0321,  0.0579,  0.0497
1491853180.1360158920,1491853180.1387469769, -0.2002,  0.0091,  0.0136,  0.0337,  0.0651,  0.0540
1491853180.1391289234,1491853180.1414999962, -0.2002,  0.0091,  0.0136,  0.0337,  0.0651,  0.0540
1491853180.1418809891,1491853180.1441869736, -0.2002,  0.0091,  0.0136,  0.0337,  0.0651,  0.0540
1491853180.1445579529,1491853180.1468510628, -0.2002,  0.0091,  0.0136,  0.0337,  0.0651,  0.0540
1491853180.1472198963,1491853180.1495130062, -0.2002,  0.0091,  0.0023,  0.0372,  0.0707,  0.0604
1491853180.1498820782,1491853180.1521821022, -0.1955,  0.0079,  0.0023,  0.0372,  0.0707,  0.0604
1491853180.1525509357,1491853180.1548810005, -0.1955,  0.0079,  0.0023,  0.0372,  0.0707,  0.0604
1491853180.1553859711,1491853180.1576869488, -0.1955,  0.0079,  0.0023,  0.0372,  0.0707,  0.0682
1491853180.1580560207,1491853180.1603529453, -0.1955,  0.0079,  0.0023,  0.0359,  0.0730,  0.0672
1491853180.1607220173,1491853180.1630210876, -0.1955,  0.0079,  0.0023,  0.0359,  0.0730,  0.0672
1491853180.1633911133,1491853180.1656970978, -0.1955,  0.0079,  0.0023,  0.0359,  0.0730,  0.0672
1491853180.1660668850,1491853180.1683640480, -0.1955,  0.0079,  0.0023,  0.0359,  0.0652,  0.0827
1491853180.1687328815,1491853180.1710240841, -0.2173,  0.0303, -0.0223,  0.0328,  0.0667,  0.0827
1491853180.1713929176,1491853180.1736929417, -0.2173,  0.0303, -0.0223,  0.0328,  0.0667,  0.0827
1491853180.1741349697,1491853180.1764318943, -0.2173,  0.0303, -0.0223,  0.0328,  0.0667,  0.0827
1491853180.1768009663,1491853180.1790900230, -0.2173,  0.0303, -0.0223,  0.0485,  0.0506,  0.1002
1491853180.1794579029,1491853180.1817541122, -0.2173,  0.0303, -0.0223,  0.0485,  0.0506,  0.1002
1491853180.1821219921,1491853180.1845309734, -0.2173,  0.0303, -0.0223,  0.0485,  0.0506,  0.1002
1491853180.1849069595,1491853180.1873319149, -0.2173,  0.0303, -0.0223,  0.0485,  0.0506,  0.1002
1491853180.1877090931,1491853180.1901359558, -0.2905, -0.0546, -0.0540,  0.0495,  0.0464,  0.1264
1491853180.1905109882,1491853180.1929380894, -0.2905, -0.0546, -0.0540,  0.0495,  0.0464,  0.1264
1491853180.1933128834,1491853180.1957509518, -0.2905, -0.0546, -0.0540,  0.0495,  0.0464,  0.1264
1491853180.1961278915,1491853180.1985490322, -0.2905, -0.0546, -0.0540,  0.0495,  0.0464,  0.1264
1491853180.1989240646,1491853180.2013499737, -0.2905, -0.0546, -0.0540,  0.0338,  0.0480,  0.1628
1491853180.2017269135,1491853180.2041599751, -0.2905, -0.0546, -0.0540,  0.0338,  0.0480,  0.1628
1491853180.2045290470,1491853180.2068300247, -0.2905, -0.0546, -0.0540,  0.0338,  0.0480,  0.1628
1491853180.2072000504,1491853180.2095060349, -0.2514, -0.0130, -0.0490,  0.0338,  0.0324,  0.1908
1491853180.2098760605,1491853180.2121748924, -0.2516, -0.0130, -0.0490,  0.0070,  0.0367,  0.1908
1491853180.2125449181,1491853180.2149178982, -0.2516, -0.0130, -0.0490,  0.0070,  0.0367,  0.1908
1491853180.2152950764,1491853180.2177200317, -0.2516, -0.0130, -0.0490,  0.0070,  0.0367,  0.1908
1491853180.2180969715,1491853180.2205181122, -0.2516, -0.0130, -0.0490, -0.0044,  0.0280,  0.2155
1491853180.2208960056,1491853180.2233240604, -0.2516, -0.0130, -0.0490, -0.0044,  0.0280,  0.2155
1491853180.2237000465,1491853180.2261381149, -0.2516, -0.0130, -0.0490, -0.0044,  0.0280,  0.2155
1491853180.2265141010,1491853180.2289431095, -0.2516, -0.0130, -0.0211, -0.0044,  0.0280,  0.2155
1491853180.2293190956,1491853180.2317399979, -0.2765, -0.0153, -0.0211, -0.0065,  0.0374,  0.2411
1491853180.2321150303,1491853180.2345490456, -0.2765, -0.0153, -0.0211, -0.0065,  0.0374,  0.2411
1491853180.2349240780,1491853180.2373449802, -0.2765, -0.0153, -0.0211, -0.0065,  0.0374,  0.2411
1491853180.2377209663,1491853180.2401471138, -0.2765, -0.0153, -0.0211, -0.0065,  0.0374,  0.2627
1491853180.2405240536,1491853180.2429521084, -0.2765, -0.0153, -0.0211,  0.0040,  0.0445,  0.2627
1491853180.2433290482,1491853180.2457640171, -0.2765, -0.0153, -0.0211,  0.0040,  0.0445,  0.2627
1491853180.2461409569,1491853180.2485620975, -0.2765, -0.0153, -0.0061,  0.0040,  0.0445,  0.2627
1491853180.2489380836,1491853180.2513589859, -0.2999, -0.0295, -0.0061,  0.0084,  0.0478,  0.2881
1491853180.2517380714,1491853180.2541689873, -0.2999, -0.0295, -0.0061,  0.0084,  0.0478,  0.2881
1491853180.2545390129,1491853180.2568399906, -0.2999, -0.0295, -0.0061,  0.0084,  0.0478,  0.2881
1491853180.2572119236,1491853180.2595140934, -0.2999, -0.0295, -0.0061,  0.0084,  0.0478,  0.2881
1491853180.2598829269,1491853180.2621879578, -0.2999, -0.0295, -0.0061,  0.0324,  0.0668,  0.3156
1491853180.2625570297,1491853180.2649149895, -0.2999, -0.0295, -0.0061,  0.0324,  0.0668,  0.3156
1491853180.2652940750,1491853180.2677199841, -0.2999, -0.0295, -0.0061,  0.0324,  0.0668,  0.3156
1491853180.2682080269,1491853180.2706310749, -0.3098, -0.1096,  0.0180,  0.0324,  0.0668,  0.3156
1491853180.2710080147,1491853180.2734339237, -0.3098, -0.1096,  0.0180,  0.0332,  0.0619,  0.3450
1491853180.2738120556,1491853180.2762999535, -0.3098, -0.1096,  0.0180,  0.0332,  0.0619,  0.3450
1491853180.2766790390,1491853180.2791020870, -0.3098, -0.1096,  0.0180,  0.0332,  0.0619,  0.3450
1491853180.2794790268,1491853180.2819039822, -0.3098, -0.1096,  0.0180,  0.0489,  0.0467,  0.3965
1491853180.2822821140,1491853180.2847239971, -0.3098, -0.1096,  0.0180,  0.0472,  0.0467,  0.3965
1491853180.2850999832,1491853180.2875199318, -0.3098, -0.1096,  0.0180,  0.0472,  0.0467,  0.3965
1491853180.2878959179,1491853180.2903239727, -0.2744, -0.1090,  0.0500,  0.0472,  0.0467,  0.3965
1491853180.2906999588,1491853180.2931270599, -0.2744, -0.1090,  0.0500,  0.1109,  0.0547,  0.4492
1491853180.2935049534,1491853180.2959370613, -0.2744, -0.1090,  0.0500,  0.1109,  0.0547,  0.4492
1491853180.2963159084,1491853180.2987370491, -0.2744, -0.1090,  0.0500,  0.1109,  0.0547,  0.4492
1491853180.2991149426,1491853180.3015389442, -0.2744, -0.1090,  0.0500,  0.1109,  0.0547,  0.4492
1491853180.3019189835,1491853180.3043448925, -0.2744, -0.1090,  0.0500,  0.1490,  0.0207,  0.5082
1491853180.3047139645,1491853180.3070108891, -0.2744, -0.1090,  0.0500,  0.1490,  0.0207,  0.5082
1491853180.3073809147,1491853180.3096790314, -0.3550, -0.1584,  0.0550,  0.1490,  0.0207,  0.5082
1491853180.3100469112,1491853180.3123478889, -0.3550, -0.1584,  0.0550,  0.1490, -0.0340,  0.5845
1491853180.3127160072,1491853180.3150761127, -0.3550, -0.1584,  0.0550,  0.1467, -0.0318,  0.5845
1491853180.3154439926,1491853180.3177380562, -0.3550, -0.1584,  0.0550,  0.1467, -0.0318,  0.5845
1491853180.3181068897,1491853180.3204019070, -0.3550, -0.1584,  0.0550,  0.1467, -0.0318,  0.5845
1491853180.3207709789,1491853180.3230719566, -0.3550, -0.1584,  0.0550,  0.0920, -0.0271,  0.6683
1491853180.3234400749,1491853180.3258841038, -0.3550, -0.1584,  0.0550,  0.0906, -0.0271,  0.6683
1491853180.3262610435,1491853180.3286840916, -0.4671,  0.0267,  0.0409,  0.0906, -0.0271,  0.6683
1491853180.3290600777,1491853180.3314819336, -0.4671,  0.0267,  0.0409,  0.0906, -0.0271,  0.6683
1491853180.3318591118,1491853180.3342959881, -0.4671,  0.0267,  0.0409, -0.0100,  0.0928,  0.7383
1491853180.3346710205,1491853180.3370969296, -0.4671,  0.0267,  0.0409, -0.0100,  0.0928,  0.7383
1491853180.3374729156,1491853180.3399019241, -0.4671,  0.0267,  0.0409, -0.0100,  0.0928,  0.7383
1491853180.3402791023,1491853180.3427050114, -0.4671,  0.0267,  0.0409, -0.0100,  0.0928,  0.7383
1491853180.3430809975,1491853180.3455119133, -0.4671,  0.0267,  0.0409, -0.0073,  0.1267,  0.7166
1491853180.3458878994,1491853180.3483159542, -0.4203,  0.0421,  0.0118, -0.0073,  0.1267,  0.7166
1491853180.3486940861,1491853180.3511109352, -0.4161,  0.0421,  0.0118, -0.0073,  0.1267,  0.7166
1491853180.3514859676,1491853180.3539121151, -0.4161,  0.0421,  0.0118,  0.0162,  0.1032,  0.6818
1491853180.3542969227,1491853180.3566000462, -0.4161,  0.0421,  0.0118,  0.0222,  0.1032,  0.6818
1491853180.3569679260,1491853180.3592679501, -0.4161,  0.0421,  0.0118,  0.0222,  0.1032,  0.6818
1491853180.3596360683,1491853180.3619360924, -0.4161,  0.0421,  0.0118,  0.0222,  0.1032,  0.6818
1491853180.3623061180,1491853180.3646860123, -0.4161,  0.0421,  0.0118, -0.0360,  0.1378,  0.6497
1491853180.3650610447,1491853180.3674829006, -0.4161,  0.0421,  0.0288, -0.0360,  0.1378,  0.6497
1491853180.3678579330,1491853180.3702850342, -0.2771, -0.0398,  0.0288, -0.0360,  0.1378,  0.6497
1491853180.3706600666,1491853180.3730831146, -0.2771, -0.0398,  0.0288, -0.0360,  0.1378,  0.6497
1491853180.3734579086,1491853180.3758890629, -0.2771, -0.0398,  0.0288, -0.0414,  0.1030,  0.5702
1491853180.3762650490,1491853180.3786880970, -0.2771, -0.0398,  0.0288, -0.0414,  0.1030,  0.5702
1491853180.3790650368,1491853180.3814918995, -0.2771, -0.0398,  0.0288, -0.0414,  0.1030,  0.5702
1491853180.3818709850,1491853180.3842990398, -0.2771, -0.0398,  0.0288, -0.0414,  0.1030,  0.4738
1491853180.3847858906,1491853180.3872110844, -0.2771, -0.0398,  0.0076,  0.0078,  0.0644,  0.4738
1491853180.3875880241,1491853180.3900089264, -0.1200, -0.0579,  0.0076,  0.0078,  0.0644,  0.4738
1491853180.3903861046,1491853180.3928120136, -0.1200, -0.0579,  0.0076,  0.0078,  0.0644,  0.4738
1491853180.3931899071,1491853180.3956489563, -0.1200, -0.0579,  0.0076,  0.0194,  0.0984,  0.3802
1491853180.3960258961,1491853180.3984448910, -0.1200, -0.0579,  0.0076,  0.0194,  0.0984,  0.3802
1491853180.3988230228,1491853180.4012451172, -0.1200, -0.0579,  0.0076,  0.0194,  0.0984,  0.3802
1491853180.4016239643,1491853180.4040551186, -0.1200, -0.0579,  0.0076,  0.0194,  0.0984,  0.3802
1491853180.4044270515,1491853180.4067280293, -0.1200, -0.0579, -0.0002,  0.0433,  0.0845,  0.2250
1491853180.4070971012,1491853180.4093959332, -0.0555,  0.0046, -0.0058,  0.0433,  0.0845,  0.2250
1491853180.4097659588,1491853180.4120628834, -0.0555,  0.0046, -0.0058,  0.0433,  0.0845,  0.2250
1491853180.4124329090,1491853180.4147388935, -0.0555,  0.0046, -0.0058,  0.0433,  0.0845,  0.0375
1491853180.4151089191,1491853180.4174098969, -0.0555,  0.0046, -0.0058,  0.0663,  0.0594,  0.0342
1491853180.4177811146,1491853180.4200770855, -0.0555,  0.0046, -0.0058,  0.0663,  0.0594,  0.0342
1491853180.4204459190,1491853180.4227440357, -0.0555,  0.0046, -0.0058,  0.0663,  0.0594,  0.0342
1491853180.4231119156,1491853180.4255220890, -0.0555,  0.0046, -0.0058,  0.0663,  0.0594, -0.0872
1491853180.4258999825,1491853180.4283239841, -0.1266, -0.0552,  0.0176, -0.0322,  0.0799, -0.0872
1491853180.4286999702,1491853180.4311239719, -0.1266, -0.0552,  0.0176, -0.0322,  0.0799, -0.0872
1491853180.4314980507,1491853180.4339230061, -0.1266, -0.0552,  0.0176, -0.0322,  0.0799, -0.0872
1491853180.4343020916,1491853180.4367260933, -0.1266, -0.0552,  0.0176, -0.0505,  0.0803, -0.1455
1491853180.4371008873,1491853180.4395229816, -0.1266, -0.0552,  0.0176, -0.0505,  0.0803, -0.1455
1491853180.4398999214,1491853180.4423251152, -0.1266, -0.0552,  0.0176, -0.0505,  0.0803, -0.1455
1491853180.4427011013,1491853180.4451360703, -0.1266, -0.0552,  0.0176, -0.0505,  0.0803, -0.1455
1491853180.4455120564,1491853180.4479329586, -0.1266, -0.0549, -0.0015, -0.0645,  0.0852, -0.1724
1491853180.4483110905,1491853180.4507339001, -0.1266, -0.0549, -0.0015, -0.0645,  0.0852, -0.1724
1491853180.4511098862,1491853180.4535379410, -0.1266, -0.0549, -0.0015, -0.0645,  0.0852, -0.1724
1491853180.4539139271,1491853180.4562370777, -0.1266, -0.0549, -0.0015, -0.0645,  0.0852, -0.1805
1491853180.4566071033,1491853180.4589109421, -0.1266, -0.0549, -0.0015, -0.0711,  0.0892, -0.1805
1491853180.4592809677,1491853180.4615819454, -0.1266, -0.0549, -0.0015, -0.0711,  0.0892, -0.1805
1491853180.4619519711,1491853180.4643030167, -0.1266, -0.0549, -0.0015, -0.0711,  0.0892, -0.1805
1491853180.4646799564,1491853180.4671049118, -0.1266,  0.0040, -0.0060, -0.0711,  0.0819, -0.2040
1491853180.4674820900,1491853180.4699060917, -0.0765,  0.0040, -0.0060, -0.0736,  0.0819, -0.2040
1491853180.4702839851,1491853180.4727070332, -0.0765,  0.0040, -0.0060, -0.0736,  0.0819, -0.2040
1491853180.4730849266,1491853180.4755198956, -0.0765,  0.0040, -0.0060, -0.0736,  0.0819, -0.2040
1491853180.4758980274,1491853180.4783189297, -0.0765,  0.0040, -0.0060, -0.0672,  0.0817, -0.2519
1491853180.4786949158,1491853180.4811170101, -0.0765,  0.0040, -0.0060, -0.0672,  0.0817, -0.2519
1491853180.4814920425,1491853180.4839110374, -0.0765,  0.0040, -0.0060, -0.0672,  0.0817, -0.2519
1491853180.4842920303,1491853180.4867200851, -0.0765,  0.0205,  0.0042, -0.0672,  0.0817, -0.2519
1491853180.4870960712,1491853180.4895250797, -0.0532,  0.0205,  0.0042, -0.0529,  0.0806, -0.3115
1491853180.4899020195,1491853180.4923229218, -0.0532,  0.0205,  0.0042, -0.0529,  0.0806, -0.3115
1491853180.4927010536,1491853180.4951400757, -0.0532,  0.0205,  0.0042, -0.0529,  0.0806, -0.3115
1491853180.4955179691,1491853180.4979441166, -0.0532,  0.0205,  0.0042, -0.0450,  0.0775, -0.3751
1491853180.4983201027,1491853180.5007429123, -0.0532,  0.0205,  0.0042, -0.0429,  0.0775, -0.3751
1491853180.5012309551,1491853180.5036609173, -0.0532,  0.0205,  0.0042, -0.0429,  0.0775, -0.3751
1491853180.5040459633,1491853180.5063469410, -0.0532,  0.0205,  0.0067, -0.0429,  0.0775, -0.3751
1491853180.5067160130,1491853180.5090179443, -0.0583,  0.0172,  0.0067, -0.0302,  0.0734, -0.4337
1491853180.5093870163,1491853180.5116848946, -0.0583,  0.0172,  0.0067, -0.0302,  0.0734, -0.4337
1491853180.5120530128,1491853180.5143818855, -0.0583,  0.0172,  0.0067, -0.0302,  0.0734, -0.4337
1491853180.5147609711,1491853180.5171880722, -0.0583,  0.0172,  0.0067, -0.0302,  0.0734, -0.4337
1491853180.5175640583,1491853180.5199871063, -0.0583,  0.0172,  0.0067, -0.0113,  0.0602, -0.4814
1491853180.5203630924,1491853180.5227909088, -0.0583,  0.0172,  0.0067, -0.0113,  0.0602, -0.4814
1491853180.5231680870,1491853180.5255949497, -0.0583,  0.0172,  0.0067, -0.0113,  0.0602, -0.4814
1491853180.5259718895,1491853180.5283958912, -0.0791,  0.0031,  0.0050, -0.0113,  0.0602, -0.5181
1491853180.5287740231,1491853180.5312008858, -0.0791,  0.0031,  0.0050,  0.0081,  0.0440, -0.5181
1491853180.5315771103,1491853180.5339999199, -0.0791,  0.0031,  0.0050,  0.0081,  0.0440, -0.5181
1491853180.5344378948,1491853180.5368649960, -0.0791,  0.0031,  0.0050,  0.0081,  0.0440, -0.5181
1491853180.5372400284,1491853180.5396680832, -0.0791,  0.0031,  0.0050,  0.0253,  0.0253, -0.5445
1491853180.5400440693,1491853180.5424690247, -0.0791,  0.0031,  0.0050,  0.0253,  0.0253, -0.5445
1491853180.5428459644,1491853180.5452790260, -0.0791,  0.0031,  0.0050,  0.0253,  0.0253, -0.5445
1491853180.5456550121,1491853180.5480799675, -0.0985, -0.0045,  0.0052,  0.0253,  0.0253, -0.5445
1491853180.5484559536,1491853180.5508859158, -0.0985, -0.0045,  0.0052,  0.0453,  0.0060, -0.5637
1491853180.5512630939,1491853180.5536859035, -0.0985, -0.0045,  0.0052,  0.0453,  0.0060, -0.5637
1491853180.5540719032,1491853180.5563709736, -0.0985, -0.0045,  0.0052,  0.0453,  0.0060, -0.5637
1491853180.5567419529,1491853180.5590391159, -0.0985, -0.0045,  0.0052,  0.0453,  0.0060, -0.5789
1491853180.5594079494,1491853180.5617039204, -0.0985, -0.0045,  0.0052,  0.0615, -0.0154, -0.5789
1491853180.5620720387,1491853180.5643749237, -0.0985, -0.0045,  0.0052,  0.0615, -0.0154, -0.5789
1491853180.5647459030,1491853180.5670430660, -0.1244, -0.0128,  0.0085,  0.0615, -0.0154, -0.5789
1491853180.5674130917,1491853180.5697059631, -0.1244, -0.0128,  0.0085,  0.0615, -0.0388, -0.5880
1491853180.5700759888,1491853180.5723710060, -0.1244, -0.0128,  0.0085,  0.0709, -0.0367, -0.5880
1491853180.5727419853,1491853180.5751190186, -0.1244, -0.0128,  0.0085,  0.0709, -0.0367, -0.5880
1491853180.5754959583,1491853180.5779221058, -0.1244, -0.0128,  0.0085,  0.0709, -0.0367, -0.5880
1491853180.5782990456,1491853180.5807209015, -0.1244, -0.0128,  0.0085,  0.0685, -0.0570, -0.5900
1491853180.5810968876,1491853180.5835189819, -0.1244, -0.0128,  0.0085,  0.0685, -0.0570, -0.5900
1491853180.5838959217,1491853180.5863270760, -0.1594, -0.0161,  0.0021,  0.0685, -0.0570, -0.5900
1491853180.5867030621,1491853180.5891289711, -0.1594, -0.0161,  0.0021,  0.0685, -0.0570, -0.5900
1491853180.5895049572,1491853180.5919339657, -0.1594, -0.0161,  0.0021,  0.0574, -0.0737, -0.5940
1491853180.5923109055,1491853180.5947411060, -0.1594, -0.0161,  0.0021,  0.0574, -0.0737, -0.5940
1491853180.5951180458,1491853180.5975399017, -0.1594, -0.0161,  0.0021,  0.0574, -0.0737, -0.5940
1491853180.5979170799,1491853180.6003420353, -0.1594, -0.0161,  0.0021,  0.0574, -0.0737, -0.6002
1491853180.6007161140,1491853180.6031389236, -0.1594, -0.0161,  0.0021,  0.0434, -0.0902, -0.6002
1491853180.6035180092,1491853180.6058630943, -0.1828, -0.0220,  0.0038,  0.0434, -0.0902, -0.6002
1491853180.6062328815,1491853180.6085340977, -0.1856, -0.0220,  0.0038,  0.0434, -0.0902, -0.6002
1491853180.6089038849,1491853180.6112020016, -0.1856, -0.0220,  0.0038,  0.0278, -0.1068, -0.6106
1491853180.6115710735,1491853180.6138761044, -0.1856, -0.0220,  0.0038,  0.0260, -0.1068, -0.6106
1491853180.6142520905,1491853180.6166760921, -0.1856, -0.0220,  0.0038,  0.0260, -0.1068, -0.6106
1491853180.6171638966,1491853180.6195850372, -0.1856, -0.0220,  0.0038,  0.0260, -0.1068, -0.6106
1491853180.6199619770,1491853180.6223850250, -0.1856, -0.0220,  0.0038,  0.0065, -0.1220, -0.6197
1491853180.6227619648,1491853180.6251869202, -0.1856, -0.0220,  0.0120,  0.0065, -0.1220, -0.6197
1491853180.6255660057,1491853180.6279819012, -0.2298, -0.0212,  0.0120,  0.0065, -0.1220, -0.6197
1491853180.6283600330,1491853180.6307799816, -0.2298, -0.0212,  0.0120,  0.0065, -0.1220, -0.6197
1491853180.6311569214,1491853180.6335790157, -0.2298, -0.0212,  0.0120, -0.0120, -0.1378, -0.6254
1491853180.6339540482,1491853180.6363859177, -0.2298, -0.0212,  0.0120, -0.0120, -0.1378, -0.6254
1491853180.6367630959,1491853180.6391890049, -0.2298, -0.0212,  0.0120, -0.0120, -0.1378, -0.6254
1491853180.6395649910,1491853180.6419899464, -0.2298, -0.0212,  0.0120, -0.0355, -0.1537, -0.6289
1491853180.6423649788,1491853180.6447539330, -0.2298, -0.0212,  0.0013, -0.0343, -0.1537, -0.6289
1491853180.6451239586,1491853180.6474249363, -0.2864, -0.0042,  0.0013, -0.0343, -0.1537, -0.6289
1491853180.6477971077,1491853180.6500968933, -0.2864, -0.0042,  0.0013, -0.0343, -0.1537, -0.6289
1491853180.6504650116,1491853180.6527640820, -0.2864, -0.0042,  0.0013, -0.0580, -0.1678, -0.6297
1491853180.6531341076,1491853180.6555209160, -0.2864, -0.0042,  0.0013, -0.0580, -0.1678, -0.6297
1491853180.6558980942,1491853180.6583249569, -0.2864, -0.0042,  0.0013, -0.0580, -0.1678, -0.6297
1491853180.6587009430,1491853180.6611280441, -0.2864, -0.0042,  0.0013, -0.0580, -0.1678, -0.6297
1491853180.6615049839,1491853180.6639280319, -0.2864, -0.0042,  0.0013, -0.0668, -0.1810, -0.6310
1491853180.6643049717,1491853180.6667280197, -0.3354,  0.0428, -0.0223, -0.0668, -0.1810, -0.6310
1491853180.6671020985,1491853180.6695270538, -0.3354,  0.0428, -0.0223, -0.0668, -0.1810, -0.6310
1491853180.6699039936,1491853180.6723299026, -0.3354,  0.0428, -0.0223, -0.0668, -0.1810, -0.6317
1491853180.6727039814,1491853180.6751289368, -0.3354,  0.0428, -0.0223, -0.0630, -0.1906, -0.6317
1491853180.6755039692,1491853180.6779289246, -0.3354,  0.0428, -0.0223, -0.0630, -0.1906, -0.6317
1491853180.6783039570,1491853180.6807260513, -0.3354,  0.0428, -0.0223, -0.0630, -0.1906, -0.6317
1491853180.6811010838,1491853180.6835210323, -0.3354,  0.0428, -0.0223, -0.0523, -0.1879, -0.6328
1491853180.6838951111,1491853180.6863288879, -0.3982,  0.0779, -0.0407, -0.0523, -0.1879, -0.6328
1491853180.6867039204,1491853180.6891329288, -0.3982,  0.0779, -0.0407, -0.0523, -0.1879, -0.6328
1491853180.6895101070,1491853180.6919291019, -0.3982,  0.0779, -0.0407, -0.0523, -0.1879, -0.6328
1491853180.6923038960,1491853180.6947131157, -0.3982,  0.0779, -0.0407, -0.0484, -0.1707, -0.6306
1491853180.6950819492,1491853180.6973791122, -0.3982,  0.0779, -0.0407, -0.0484, -0.1707, -0.6306
1491853180.6977479458,1491853180.7000470161, -0.3982,  0.0779, -0.0407, -0.0484, -0.1707, -0.6306
1491853180.7004160881,1491853180.7027149200, -0.3982,  0.0779, -0.0407, -0.0484, -0.1707, -0.6306
1491853180.7030839920,1491853180.7055070400, -0.4418,  0.0835, -0.0433, -0.0534, -0.1352, -0.6192
1491853180.7058830261,1491853180.7083110809, -0.4418,  0.0835, -0.0433, -0.0534, -0.1352, -0.6192
1491853180.7086849213,1491853180.7111070156, -0.4418,  0.0835, -0.0433, -0.0534, -0.1352, -0.6192
1491853180.7114839554,1491853180.7139089108, -0.4418,  0.0835, -0.0433, -0.0534, -0.0921, -0.5963
1491853180.7142939568,1491853180.7167260647, -0.4418,  0.0835, -0.0433, -0.0588, -0.0921, -0.5963
1491853180.7171010971,1491853180.7195219994, -0.4418,  0.0835, -0.0433, -0.0588, -0.0921, -0.5963
1491853180.7198989391,1491853180.7223229408, -0.4418,  0.0835, -0.0433, -0.0588, -0.0921, -0.5963
1491853180.7227001190,1491853180.7251338959, -0.3991,  0.1488, -0.0399, -0.0620, -0.0559, -0.5673
1491853180.7255098820,1491853180.7279350758, -0.3991,  0.1488, -0.0399, -0.0620, -0.0559, -0.5673
1491853180.7283110619,1491853180.7307350636, -0.3991,  0.1488, -0.0399, -0.0620, -0.0559, -0.5673
1491853180.7311100960,1491853180.7335319519, -0.3991,  0.1488, -0.0399, -0.0620, -0.0559, -0.5673
1491853180.7340719700,1491853180.7364969254, -0.3991,  0.1488, -0.0399, -0.0561, -0.0303, -0.5334
1491853180.7368741035,1491853180.7393009663, -0.3991,  0.1488, -0.0399, -0.0561, -0.0303, -0.5334
1491853180.7396769524,1491853180.7420969009, -0.3991,  0.1488, -0.0399, -0.0561, -0.0303, -0.5334
1491853180.7424740791,1491853180.7448680401, -0.3152,  0.2719,  0.0273, -0.0326, -0.0139, -0.4914
1491853180.7452349663,1491853180.7475340366, -0.3152,  0.2719,  0.0273, -0.0337, -0.0139, -0.4914
1491853180.7479019165,1491853180.7502000332, -0.3152,  0.2719,  0.0273, -0.0337, -0.0139, -0.4914
1491853180.7505669594,1491853180.7528669834, -0.3152,  0.2719,  0.0273, -0.0337, -0.0139, -0.4914
1491853180.7532339096,1491853180.7556650639, -0.3152,  0.2719,  0.0273,  0.0164, -0.0146, -0.4294
1491853180.7560420036,1491853180.7584660053, -0.3152,  0.2719,  0.0273,  0.0164, -0.0146, -0.4294
1491853180.7588388920,1491853180.7612600327, -0.3152,  0.2719,  0.0273,  0.0164, -0.0146, -0.4294
1491853180.7616350651,1491853180.7640659809, -0.3152,  0.3735, -0.0212,  0.0164, -0.0146, -0.4294
1491853180.7644410133,1491853180.7668650150, -0.2459,  0.3720, -0.0212,  0.0891, -0.0208, -0.3377
1491853180.7672419548,1491853180.7696630955, -0.2459,  0.3720, -0.0212,  0.0891, -0.0208, -0.3377
1491853180.7700378895,1491853180.7724630833, -0.2459,  0.3720, -0.0212,  0.0891, -0.0208, -0.3377
1491853180.7728390694,1491853180.7752730846, -0.2459,  0.3720, -0.0212,  0.0891, -0.0208, -0.2267
1491853180.7756490707,1491853180.7780721188, -0.2459,  0.3720, -0.0212,  0.1561, -0.0353, -0.2267
1491853180.7784481049,1491853180.7808699608, -0.2459,  0.3720, -0.0212,  0.1561, -0.0353, -0.2267
1491853180.7812449932,1491853180.7836649418, -0.2459,  0.3720, -0.0866,  0.1561, -0.0353, -0.2267
1491853180.7840509415,1491853180.7864758968, -0.1820,  0.3369, -0.0866,  0.1897, -0.0588, -0.1238
1491853180.7868559361,1491853180.7892789841, -0.1820,  0.3369, -0.0866,  0.1897, -0.0588, -0.1238
1491853180.7896549702,1491853180.7920780182, -0.1820,  0.3369, -0.0866,  0.1897, -0.0588, -0.1238
1491853180.7924549580,1491853180.7948520184, -0.1820,  0.3369, -0.0866,  0.1897, -0.0588, -0.1238
1491853180.7952229977,1491853180.7975220680, -0.1820,  0.3369, -0.0866,  0.1922, -0.0605, -0.0339
1491853180.7978930473,1491853180.8001930714, -0.1820,  0.3369, -0.0866,  0.1922, -0.0605, -0.0339
1491853180.8005599976,1491853180.8028619289, -0.1820,  0.3369, -0.0866,  0.1922, -0.0605, -0.0339
1491853180.8032310009,1491853180.8055369854, -0.2690,  0.2130, -0.0890,  0.1922, -0.0605, -0.0339
1491853180.8059060574,1491853180.8082039356, -0.2690,  0.2130, -0.0890,  0.1531, -0.0261,  0.0440
1491853180.8085730076,1491853180.8108720779, -0.2690,  0.2130, -0.0890,  0.1531, -0.0261,  0.0440
1491853180.8112421036,1491853180.8135380745, -0.2690,  0.2130, -0.0890,  0.1531, -0.0261,  0.0440
1491853180.8139081001,1491853180.8164710999, -0.2690,  0.2130, -0.0890,  0.1531, -0.0261,  0.1094
1491853180.8168480396,1491853180.8192539215, -0.2690,  0.2130, -0.0890,  0.0877,  0.0283,  0.1094
1491853180.8196299076,1491853180.8220379353, -0.2690,  0.2130, -0.0890,  0.0877,  0.0283,  0.1094
1491853180.8224160671,1491853180.8248701096, -0.2570,  0.1926, -0.0645,  0.0877,  0.0283,  0.1094
1491853180.8252439499,1491853180.8276510239, -0.2570,  0.1926, -0.0645,  0.0284,  0.0768,  0.1552
1491853180.8280251026,1491853180.8304369450, -0.2570,  0.1926, -0.0645,  0.0284,  0.0768,  0.1552
1491853180.8308110237,1491853180.8332180977, -0.2570,  0.1926, -0.0645,  0.0284,  0.0768,  0.1552
1491853180.8335928917,1491853180.8360109329, -0.2570,  0.1926, -0.0645,  0.0284,  0.0768,  0.1552
1491853180.8363840580,1491853180.8387899399, -0.2570,  0.1926, -0.0645, -0.0097,  0.1095,  0.1819
1491853180.8391659260,1491853180.8415730000, -0.2570,  0.1926, -0.0645, -0.0097,  0.1095,  0.1819
1491853180.8419499397,1491853180.8443710804, -0.5053,  0.0244, -0.0513, -0.0097,  0.1095,  0.1819
1491853180.8447461128,1491853180.8471529484, -0.5053,  0.0244, -0.0513, -0.0097,  0.1095,  0.2301
1491853180.8476319313,1491853180.8500390053, -0.5053,  0.0244, -0.0513,  0.0600,  0.0855,  0.2301
1491853180.8504149914,1491853180.8528249264, -0.5053,  0.0244, -0.0513,  0.0600,  0.0855,  0.2301
1491853180.8531999588,1491853180.8556559086, -0.5053,  0.0244, -0.0513,  0.0600,  0.0855,  0.2301
1491853180.8560318947,1491853180.8584361076, -0.5053,  0.0244, -0.0513,  0.1713,  0.0923,  0.2236
1491853180.8588089943,1491853180.8612139225, -0.5053,  0.0244, -0.0513,  0.1713,  0.0923,  0.2236
1491853180.8615889549,1491853180.8639979362, -0.2069, -0.7198,  0.0222,  0.1713,  0.0923,  0.2236
1491853180.8644199371,1491853180.8668279648, -0.2069, -0.7198,  0.0222,  0.1713,  0.0923,  0.2236
1491853180.8672029972,1491853180.8696119785, -0.2069, -0.7198,  0.0222,  0.0146,  0.1193,  0.1082
1491853180.8699889183,1491853180.8723950386, -0.2069, -0.7198,  0.0222,  0.0146,  0.1193,  0.1082
1491853180.8727691174,1491853180.8751780987, -0.2069, -0.7198,  0.0222,  0.0146,  0.1193,  0.1082
1491853180.8755540848,1491853180.8779590130, -0.2069, -0.7198,  0.0222,  0.0146,  0.1193,  0.5301
1491853180.8783340454,1491853180.8807370663, -0.2069, -0.7198,  0.0222, -0.0625, -0.0325,  0.5254
1491853180.8811109066,1491853180.8835229874, -0.1736,  0.2612, -0.1416, -0.0625, -0.0325,  0.5254
1491853180.8838970661,1491853180.8863129616, -0.1736,  0.2612, -0.1416, -0.0625, -0.0325,  0.5254
1491853180.8866860867,1491853180.8890919685, -0.1736,  0.2612, -0.1416, -0.2110,  0.0131,  0.6768
1491853180.8894670010,1491853180.8918728828, -0.1736,  0.2612, -0.1416, -0.2180,  0.0131,  0.6768
1491853180.8922469616,1491853180.8946669102, -0.1736,  0.2612, -0.1416, -0.2180,  0.0131,  0.6768
1491853180.8950428963,1491853180.8974568844, -0.1736,  0.2612, -0.1416, -0.2180,  0.0131,  0.6768
1491853180.8978309631,1491853180.9002380371, -0.1736,  0.2612, -0.1416, -0.0565,  0.0075,  0.4406
1491853180.9006140232,1491853180.9030261040, -0.1736,  0.0262, -0.0134, -0.0565,  0.0075,  0.4406
1491853180.9034008980,1491853180.9058599472, -0.2144,  0.0262, -0.0134, -0.0565,  0.0075,  0.4406
1491853180.9062368870,1491853180.9086480141, -0.2144,  0.0262, -0.0134, -0.0565,  0.0075,  0.3156
1491853180.9090240002,1491853180.9114339352, -0.2144,  0.0262, -0.0134, -0.0145, -0.0024,  0.3150
1491853180.9118089676,1491853180.9142758846, -0.2144,  0.0262, -0.0134, -0.0145, -0.0024,  0.3150
1491853180.9146549702,1491853180.9170789719, -0.2144,  0.0262, -0.0134, -0.0145, -0.0024,  0.3150
1491853180.9174549580,1491853180.9198811054, -0.2144,  0.0262, -0.0134, -0.0536, -0.0274,  0.2987
1491853180.9202558994,1491853180.9226760864, -0.2144, -0.0085, -0.0388, -0.0496, -0.0274,  0.2987
1491853180.9230499268,1491853180.9254798889, -0.1901, -0.0085, -0.0388, -0.0496, -0.0274,  0.2987
1491853180.9258561134,1491853180.9282789230, -0.1901, -0.0085, -0.0388, -0.0496, -0.0274,  0.2987
1491853180.9286570549,1491853180.9310779572, -0.1901, -0.0085, -0.0388, -0.0088, -0.0053,  0.2899
1491853180.9314539433,1491853180.9338738918, -0.1901, -0.0085, -0.0388, -0.0088, -0.0053,  0.2899
1491853180.9342539310,1491853180.9365530014, -0.1901, -0.0085, -0.0388, -0.0088, -0.0053,  0.2899
1491853180.9369230270,1491853180.9392199516, -0.1901, -0.0085, -0.0388, -0.0088, -0.0053,  0.2899
1491853180.9395899773,1491853180.9418950081, -0.1901, -0.0085,  0.0315, -0.0160, -0.0309,  0.2757
1491853180.9422659874,1491853180.9445970058, -0.1860,  0.0649,  0.0390, -0.0160, -0.0309,  0.2757
1491853180.9449739456,1491853180.9473989010, -0.1860,  0.0649,  0.0390, -0.0160, -0.0309,  0.2757
1491853180.9477748871,1491853180.9501979351, -0.1860,  0.0649,  0.0390, -0.0160, -0.0309,  0.2372
1491853180.9505760670,1491853180.9529950619, -0.1860,  0.0649,  0.0390, -0.0338, -0.0418,  0.2372
1491853180.9533700943,1491853180.9558110237, -0.1860,  0.0649,  0.0390, -0.0338, -0.0418,  0.2372
1491853180.9561860561,1491853180.9586110115, -0.1860,  0.0649,  0.0390, -0.0338, -0.0418,  0.2372
1491853180.9589879513,1491853180.9614059925, -0.1860,  0.0649,  0.0390, -0.0095, -0.0192,  0.1979
1491853180.9617819786,1491853180.9642510414, -0.1953,  0.0432,  0.0223, -0.0095, -0.0192,  0.1979
1491853180.9647378922,1491853180.9671630859, -0.1953,  0.0432,  0.0223, -0.0095, -0.0192,  0.1979
1491853180.9675409794,1491853180.9699618816, -0.1953,  0.0432,  0.0223, -0.0095, -0.0192,  0.1979
1491853180.9703359604,1491853180.9727571011, -0.1953,  0.0432,  0.0223,  0.0171, -0.0051,  0.1757
1491853180.9731340408,1491853180.9755671024, -0.1953,  0.0432,  0.0223,  0.0171, -0.0051,  0.1757
1491853180.9759440422,1491853180.9783689976, -0.1953,  0.0432,  0.0223,  0.0171, -0.0051,  0.1757
1491853180.9787480831,1491853180.9811720848, -0.1953,  0.0432,  0.0223,  0.0171, -0.0051,  0.1505
1491853180.9815471172,1491853180.9839699268, -0.2014,  0.0583,  0.0334, -0.0068, -0.0022,  0.1505
1491853180.9843919277,1491853180.9866929054, -0.2014,  0.0583,  0.0334, -0.0068, -0.0022,  0.1505
1491853180.9870629311,1491853180.9893579483, -0.2014,  0.0583,  0.0334, -0.0068, -0.0022,  0.1505
1491853180.9897310734,1491853180.9920299053, -0.2014,  0.0583,  0.0334, -0.0180,  0.0079,  0.1169
1491853180.9923999310,1491853180.9947519302, -0.2014,  0.0583,  0.0334, -0.0180,  0.0079,  0.1169
1491853180.9951291084,1491853180.9975559711, -0.2014,  0.0583,  0.0334, -0.0180,  0.0079,  0.1169
1491853180.9979329109,1491853181.0003550053, -0.2014,  0.0583,  0.0334, -0.0180,  0.0079,  0.1169
1491853181.0007340908,1491853181.0031559467, -0.1898,  0.0053,  0.0089,  0.0103,  0.0306,  0.0884
1491853181.0035328865,1491853181.0059618950, -0.1898,  0.0053,  0.0089,  0.0103,  0.0306,  0.0884
1491853181.0063400269,1491853181.0087580681, -0.1898,  0.0053,  0.0089,  0.0103,  0.0306,  0.0884
1491853181.0091359615,1491853181.0115580559, -0.1898,  0.0053,  0.0089,  0.0103,  0.0306,  0.0806
1491853181.0119369030,1491853181.0143749714, -0.1898,  0.0053,  0.0089,  0.0126,  0.0352,  0.0782
1491853181.0147519112,1491853181.0171720982, -0.1898,  0.0053,  0.0089,  0.0126,  0.0352,  0.0782
1491853181.0175490379,1491853181.0199689865, -0.1898,  0.0053,  0.0089,  0.0126,  0.0352,  0.0782
1491853181.0203459263,1491853181.0227689743, -0.1894,  0.0259, -0.0089,  0.0126,  0.0326,  0.0663
1491853181.0231459141,1491853181.0255820751, -0.1894,  0.0259, -0.0089,  0.0098,  0.0326,  0.0663
1491853181.0259580612,1491853181.0283811092, -0.1894,  0.0259, -0.0089,  0.0098,  0.0326,  0.0663
1491853181.0287590027,1491853181.0312209129, -0.1894,  0.0259, -0.0089,  0.0098,  0.0326,  0.0663
1491853181.0315999985,1491853181.0341129303, -0.1894,  0.0259, -0.0089,  0.0253,  0.0371,  0.0496
1491853181.0344860554,1491853181.0367879868, -0.1894,  0.0259, -0.0089,  0.0253,  0.0371,  0.0496
1491853181.0371599197,1491853181.0394620895, -0.1894,  0.0259, -0.0089,  0.0253,  0.0371,  0.0496
1491853181.0398459435,1491853181.0421490669, -0.1852,  0.0034, -0.0144,  0.0253,  0.0371,  0.0496
1491853181.0425179005,1491853181.0449140072, -0.1852,  0.0034, -0.0144,  0.0289,  0.0337,  0.0426
1491853181.0452919006,1491853181.0477180481, -0.1852,  0.0034, -0.0144,  0.0289,  0.0337,  0.0426
1491853181.0480949879,1491853181.0505170822, -0.1852,  0.0034, -0.0144,  0.0289,  0.0337,  0.0426
1491853181.0508921146,1491853181.0533180237, -0.1852,  0.0034, -0.0144,  0.0289,  0.0258,  0.0378
1491853181.0536949635,1491853181.0561230183, -0.1852,  0.0034, -0.0144,  0.0266,  0.0260,  0.0378
1491853181.0564980507,1491853181.0589220524, -0.1852,  0.0034, -0.0144,  0.0266,  0.0260,  0.0378
1491853181.0592989922,1491853181.0617210865, -0.1930,  0.0036, -0.0017,  0.0266,  0.0260,  0.0378
1491853181.0620970726,1491853181.0645310879, -0.1876,  0.0036, -0.0017,  0.0218,  0.0222,  0.0310
1491853181.0649099350,1491853181.0673329830, -0.1876,  0.0036, -0.0017,  0.0218,  0.0222,  0.0310
1491853181.0677099228,1491853181.0701339245, -0.1876,  0.0036, -0.0017,  0.0218,  0.0222,  0.0310
1491853181.0705099106,1491853181.0729339123, -0.1876,  0.0036, -0.0017,  0.0218,  0.0222,  0.0310
1491853181.0733098984,1491853181.0757439137, -0.1876,  0.0036, -0.0017,  0.0230,  0.0206,  0.0277
1491853181.0761210918,1491853181.0785439014, -0.1876,  0.0036, -0.0017,  0.0230,  0.0206,  0.0277
1491853181.0789198875,1491853181.0813400745, -0.1876,  0.0021, -0.0042,  0.0230,  0.0206,  0.0277
1491853181.0818319321,1491853181.0842630863, -0.1865,  0.0021, -0.0042,  0.0230,  0.0206,  0.0254
1491853181.0846331120,1491853181.0869328976, -0.1865,  0.0021, -0.0042,  0.0180,  0.0161,  0.0254
1491853181.0873019695,1491853181.0896019936, -0.1865,  0.0021, -0.0042,  0.0180,  0.0161,  0.0254
1491853181.0899701118,1491853181.0922689438, -0.1865,  0.0021, -0.0042,  0.0180,  0.0161,  0.0254
1491853181.0926349163,1491853181.0949950218, -0.1865,  0.0021, -0.0042,  0.0127,  0.0137,  0.0241
1491853181.0953719616,1491853181.0977909565, -0.1865,  0.0021, -0.0042,  0.0127,  0.0137,  0.0241
1491853181.0981690884,1491853181.1005930901, -0.1865,  0.0021,  0.0114,  0.0127,  0.0137,  0.0241
1491853181.1009690762,1491853181.1033959389, -0.1910, -0.0011,  0.0127,  0.0127,  0.0137,  0.0241
1491853181.1037731171,1491853181.1062030792, -0.1910, -0.0011,  0.0127,  0.0124,  0.0161,  0.0244
1491853181.1065809727,1491853181.1089999676, -0.1910, -0.0011,  0.0127,  0.0124,  0.0161,  0.0244
1491853181.1093769073,1491853181.1117990017, -0.1910, -0.0011,  0.0127,  0.0124,  0.0161,  0.0244
1491853181.1121759415,1491853181.1145989895, -0.1910, -0.0011,  0.0127,  0.0124,  0.0161,  0.0244
1491853181.1149768829,1491853181.1174008846, -0.1910, -0.0011,  0.0127,  0.0165,  0.0218,  0.0255
1491853181.1177780628,1491853181.1202020645, -0.1910, -0.0011,  0.0127,  0.0165,  0.0218,  0.0255
1491853181.1205770969,1491853181.1229989529, -0.1904,  0.0071,  0.0127,  0.0165,  0.0218,  0.0255
1491853181.1233749390,1491853181.1257989407, -0.1904,  0.0071,  0.0127,  0.0255,  0.0285,  0.0246
1491853181.1261749268,1491853181.1285970211, -0.1904,  0.0071,  0.0127,  0.0255,  0.0285,  0.0246
1491853181.1289739609,1491853181.1313939095, -0.1904,  0.0071,  0.0127,  0.0255,  0.0285,  0.0246
1491853181.1317698956,1491853181.1341869831, -0.1904,  0.0071,  0.0127,  0.0255,  0.0285,  0.0246
1491853181.1345551014,1491853181.1368489265, -0.1904,  0.0071,  0.0127,  0.0292,  0.0327,  0.0224
1491853181.1372189522,1491853181.1395139694, -0.1904,  0.0071,  0.0127,  0.0292,  0.0327,  0.0224
1491853181.1398859024,1491853181.1421849728, -0.1855,  0.0059,  0.0045,  0.0292,  0.0327,  0.0224
1491853181.1425559521,1491853181.1449129581, -0.1855,  0.0059,  0.0045,  0.0292,  0.0327,  0.0224
1491853181.1452879906,1491853181.1477150917, -0.1855,  0.0059,  0.0045,  0.0270,  0.0326,  0.0226
1491853181.1480920315,1491853181.1505119801, -0.1855,  0.0059,  0.0045,  0.0270,  0.0326,  0.0226
1491853181.1508879662,1491853181.1533091068, -0.1855,  0.0059,  0.0045,  0.0270,  0.0326,  0.0226
1491853181.1536870003,1491853181.1561250687, -0.1855,  0.0059,  0.0045,  0.0270,  0.0326,  0.0227
1491853181.1565020084,1491853181.1589260101, -0.1855,  0.0059,  0.0045,  0.0279,  0.0317,  0.0227
1491853181.1593039036,1491853181.1617259979, -0.1852,  0.0050, -0.0036,  0.0279,  0.0317,  0.0227
1491853181.1621019840,1491853181.1645359993, -0.1852,  0.0050, -0.0036,  0.0279,  0.0317,  0.0227
1491853181.1649129391,1491853181.1673359871, -0.1852,  0.0050, -0.0036,  0.0281,  0.0289,  0.0236
1491853181.1677129269,1491853181.1701319218, -0.1852,  0.0050, -0.0036,  0.0281,  0.0289,  0.0236
1491853181.1705079079,1491853181.1729359627, -0.1852,  0.0050, -0.0036,  0.0281,  0.0289,  0.0236
1491853181.1733119488,1491853181.1757390499, -0.1852,  0.0050, -0.0036,  0.0281,  0.0289,  0.0236
1491853181.1761140823,1491853181.1785340309, -0.1852,  0.0050, -0.0036,  0.0291,  0.0256,  0.0251
1491853181.1789109707,1491853181.1813371181, -0.1848,  0.0035, -0.0097,  0.0291,  0.0256,  0.0251
1491853181.1817150116,1491853181.1841440201, -0.1848,  0.0035, -0.0097,  0.0291,  0.0256,  0.0251
1491853181.1845140457,1491853181.1868150234, -0.1848,  0.0035, -0.0097,  0.0291,  0.0256,  0.0281
1491853181.1871840954,1491853181.1894819736, -0.1848,  0.0035, -0.0097,  0.0286,  0.0218,  0.0281
1491853181.1898510456,1491853181.1921529770, -0.1848,  0.0035, -0.0097,  0.0286,  0.0218,  0.0281
1491853181.1925220490,1491853181.1948640347, -0.1848,  0.0035, -0.0097,  0.0286,  0.0218,  0.0281
1491853181.1952331066,1491853181.1975350380, -0.1848,  0.0035, -0.0097,  0.0286,  0.0181,  0.0307
1491853181.1980099678,1491853181.2003109455, -0.1848,  0.0056, -0.0131,  0.0275,  0.0181,  0.0307
1491853181.2006800175,1491853181.2029740810, -0.1875,  0.0056, -0.0131,  0.0275,  0.0181,  0.0307
1491853181.2033441067,1491853181.2057518959, -0.1875,  0.0056, -0.0131,  0.0275,  0.0181,  0.0307
1491853181.2061278820,1491853181.2085518837, -0.1875,  0.0056, -0.0131,  0.0263,  0.0136,  0.0329
1491853181.2089290619,1491853181.2113499641, -0.1875,  0.0056, -0.0131,  0.0263,  0.0136,  0.0329
1491853181.2117269039,1491853181.2141630650, -0.1875,  0.0056, -0.0131,  0.0263,  0.0136,  0.0329
1491853181.2145400047,1491853181.2169649601, -0.1875,  0.0056, -0.0131,  0.0263,  0.0136,  0.0329
1491853181.2173418999,1491853181.2197639942, -0.1875,  0.0056,  0.0045,  0.0269,  0.0132,  0.0357
1491853181.2201399803,1491853181.2225639820, -0.1948,  0.0097,  0.0045,  0.0269,  0.0132,  0.0357
1491853181.2229421139,1491853181.2253780365, -0.1948,  0.0097,  0.0045,  0.0269,  0.0132,  0.0357
1491853181.2257530689,1491853181.2281780243, -0.1948,  0.0097,  0.0045,  0.0269,  0.0210,  0.0356
1491853181.2285540104,1491853181.2309820652, -0.1948,  0.0097,  0.0045,  0.0301,  0.0168,  0.0356
1491853181.2313580513,1491853181.2337830067, -0.1948,  0.0097,  0.0045,  0.0301,  0.0168,  0.0356
1491853181.2341680527,1491853181.2365880013, -0.1948,  0.0097,  0.0045,  0.0301,  0.0168,  0.0356
1491853181.2369658947,1491853181.2393889427, -0.1948,  0.0097, -0.0035,  0.0329,  0.0212,  0.0347
1491853181.2397649288,1491853181.2421929836, -0.1927,  0.0167, -0.0035,  0.0329,  0.0212,  0.0347
1491853181.2425689697,1491853181.2449491024, -0.1927,  0.0167, -0.0035,  0.0329,  0.0212,  0.0347
1491853181.2453179359,1491853181.2476189137, -0.1927,  0.0167, -0.0035,  0.0329,  0.0212,  0.0347
1491853181.2479870319,1491853181.2502849102, -0.1927,  0.0167, -0.0035,  0.0389,  0.0270,  0.0337
1491853181.2506549358,1491853181.2529571056, -0.1927,  0.0167, -0.0035,  0.0389,  0.0270,  0.0337
1491853181.2533268929,1491853181.2557249069, -0.1927,  0.0167, -0.0035,  0.0389,  0.0270,  0.0337
1491853181.2561008930,1491853181.2585229874, -0.1927,  0.0167, -0.0035,  0.0389,  0.0270,  0.0337
1491853181.2588989735,1491853181.2613260746, -0.1887,  0.0104, -0.0246,  0.0393,  0.0284,  0.0322
1491853181.2617020607,1491853181.2641329765, -0.1887,  0.0104, -0.0246,  0.0393,  0.0284,  0.0322
1491853181.2645089626,1491853181.2669320107, -0.1887,  0.0104, -0.0246,  0.0393,  0.0284,  0.0322
1491853181.2673070431,1491853181.2697288990, -0.1887,  0.0104, -0.0246,  0.0315,  0.0269,  0.0321
1491853181.2701020241,1491853181.2725269794, -0.1887,  0.0104, -0.0246,  0.0357,  0.0269,  0.0321
1491853181.2729039192,1491853181.2753360271, -0.1887,  0.0104, -0.0246,  0.0357,  0.0269,  0.0321
1491853181.2757101059,1491853181.2781240940, -0.1887,  0.0104, -0.0246,  0.0357,  0.0269,  0.0321
1491853181.2785000801,1491853181.2809190750, -0.1929,  0.0101, -0.0109,  0.0331,  0.0255,  0.0340
1491853181.2812960148,1491853181.2837209702, -0.1929,  0.0101, -0.0109,  0.0331,  0.0255,  0.0340
1491853181.2841050625,1491853181.2865369320, -0.1929,  0.0101, -0.0109,  0.0331,  0.0255,  0.0340
1491853181.2869129181,1491853181.2893400192, -0.1929,  0.0101, -0.0109,  0.0331,  0.0255,  0.0340
1491853181.2897150517,1491853181.2921359539, -0.1929,  0.0101, -0.0109,  0.0314,  0.0270,  0.0376
1491853181.2925140858,1491853181.2949140072, -0.1929,  0.0101, -0.0109,  0.0314,  0.0270,  0.0376
1491853181.2952809334,1491853181.2975869179, -0.1929,  0.0101, -0.0109,  0.0314,  0.0270,  0.0376
1491853181.2979540825,1491853181.3002500534, -0.1994,  0.0094,  0.0007,  0.0314,  0.0270,  0.0410
1491853181.3006179333,1491853181.3029160500, -0.1994,  0.0094,  0.0007,  0.0279,  0.0300,  0.0410
1491853181.3032848835,1491853181.3056259155, -0.1994,  0.0094,  0.0007,  0.0279,  0.0300,  0.0410
1491853181.3059949875,1491853181.3082931042, -0.1994,  0.0094,  0.0007,  0.0279,  0.0300,  0.0410
1491853181.3086609840,1491853181.3109629154, -0.1994,  0.0094,  0.0007,  0.0236,  0.0356,  0.0453
1491853181.3113310337,1491853181.3136239052, -0.1994,  0.0094,  0.0007,  0.0236,  0.0356,  0.0453
1491853181.3140890598,1491853181.3165140152, -0.1994,  0.0094,  0.0007,  0.0236,  0.0356,  0.0453
1491853181.3168900013,1491853181.3193070889, -0.1994,  0.0089, -0.0036,  0.0236,  0.0356,  0.0453
1491853181.3196849823,1491853181.3221070766, -0.1978,  0.0089, -0.0036,  0.0247,  0.0414,  0.0509
1491853181.3224840164,1491853181.3249189854, -0.1978,  0.0089, -0.0036,  0.0247,  0.0414,  0.0509
1491853181.3252949715,1491853181.3277170658, -0.1978,  0.0089, -0.0036,  0.0247,  0.0414,  0.0509
1491853181.3280940056,1491853181.3305139542, -0.1978,  0.0089, -0.0036,  0.0247,  0.0414,  0.0587
1491853181.3308908939,1491853181.3333139420, -0.1978,  0.0089, -0.0036,  0.0265,  0.0445,  0.0560
1491853181.3336899281,1491853181.3361279964, -0.1978,  0.0089, -0.0036,  0.0265,  0.0445,  0.0560
1491853181.3365030289,1491853181.3389248848, -0.1978,  0.0164, -0.0034,  0.0265,  0.0445,  0.0560
1491853181.3393020630,1491853181.3417229652, -0.2062,  0.0164, -0.0034,  0.0265,  0.0456,  0.0634
1491853181.3420979977,1491853181.3445129395, -0.2062,  0.0164, -0.0034,  0.0299,  0.0456,  0.0634
1491853181.3448810577,1491853181.3471820354, -0.2062,  0.0164, -0.0034,  0.0299,  0.0456,  0.0634
1491853181.3475480080,1491853181.3498489857, -0.2062,  0.0164, -0.0034,  0.0299,  0.0456,  0.0634
1491853181.3502199650,1491853181.3525168896, -0.2062,  0.0164, -0.0034,  0.0415,  0.0345,  0.0839
1491853181.3528859615,1491853181.3553109169, -0.2062,  0.0164, -0.0034,  0.0415,  0.0345,  0.0839
1491853181.3556869030,1491853181.3581149578, -0.2062,  0.0164, -0.0034,  0.0415,  0.0345,  0.0839
1491853181.3584899902,1491853181.3609130383, -0.2919, -0.0409, -0.0001,  0.0415,  0.0345,  0.0839
1491853181.3612918854,1491853181.3637170792, -0.2919, -0.0409, -0.0001,  0.0525,  0.0396,  0.1184
1491853181.3641040325,1491853181.3665289879, -0.2919, -0.0409, -0.0001,  0.0525,  0.0396,  0.1184
1491853181.3669059277,1491853181.3693320751, -0.2919, -0.0409, -0.0001,  0.0525,  0.0396,  0.1184
1491853181.3697090149,1491853181.3721408844, -0.2919, -0.0409, -0.0001,  0.0525,  0.0396,  0.1621
1491853181.3725180626,1491853181.3749580383, -0.2919, -0.0409, -0.0001,  0.0432,  0.0549,  0.1621
1491853181.3753349781,1491853181.3777599335, -0.2919, -0.0409, -0.0001,  0.0432,  0.0549,  0.1621
1491853181.3781359196,1491853181.3805620670, -0.2278, -0.0076, -0.0371,  0.0432,  0.0549,  0.1621
1491853181.3809399605,1491853181.3833599091, -0.2278, -0.0076, -0.0371,  0.0254,  0.0411,  0.1874
1491853181.3837380409,1491853181.3861789703, -0.2278, -0.0076, -0.0371,  0.0254,  0.0411,  0.1874
1491853181.3865540028,1491853181.3889811039, -0.2278, -0.0076, -0.0371,  0.0254,  0.0411,  0.1874
1491853181.3893580437,1491853181.3917839527, -0.2278, -0.0076, -0.0371,  0.0254,  0.0411,  0.1874
1491853181.3921630383,1491853181.3945610523, -0.2278, -0.0076, -0.0371,  0.0058,  0.0281,  0.2145
1491853181.3949298859,1491853181.3972299099, -0.2278, -0.0076, -0.0371,  0.0058,  0.0281,  0.2145
1491853181.3975989819,1491853181.3998970985, -0.2683, -0.0154, -0.0441,  0.0058,  0.0281,  0.2145
1491853181.4002659321,1491853181.4025669098, -0.2683, -0.0154, -0.0441,  0.0058,  0.0281,  0.2379
1491853181.4029359818,1491853181.4053139687, -0.2683, -0.0154, -0.0441, -0.0090,  0.0341,  0.2397
1491853181.4056909084,1491853181.4080998898, -0.2683, -0.0154, -0.0441, -0.0090,  0.0341,  0.2397
1491853181.4084749222,1491853181.4108870029, -0.2683, -0.0154, -0.0441, -0.0090,  0.0341,  0.2397
1491853181.4112610817,1491853181.4136679173, -0.2683, -0.0154, -0.0441, -0.0012,  0.0399,  0.2607
1491853181.4140501022,1491853181.4164381027, -0.2683, -0.0154, -0.0441, -0.0006,  0.0399,  0.2607
1491853181.4168379307,1491853181.4210119247, -0.2756, -0.0290, -0.0004, -0.0006,  0.0399,  0.2607
1491853181.4214000702,1491853181.4236929417, -0.2756, -0.0290, -0.0004, -0.0006,  0.0399,  0.2828
1491853181.4240889549,1491853181.4263908863, -0.2756, -0.0290, -0.0004,  0.0067,  0.0424,  0.2828
1491853181.4267609119,1491853181.4290559292, -0.2756, -0.0290, -0.0004,  0.0067,  0.0424,  0.2828
1491853181.4295589924,1491853181.4318590164, -0.2756, -0.0290, -0.0004,  0.0067,  0.0424,  0.2828
1491853181.4322290421,1491853181.4346330166, -0.2756, -0.0290, -0.0004,  0.0274,  0.0558,  0.3077
1491853181.4350049496,1491853181.4372971058, -0.2756, -0.0290, -0.0004,  0.0274,  0.0558,  0.3077
1491853181.4376649857,1491853181.4399619102, -0.2910, -0.0776, -0.0014,  0.0274,  0.0558,  0.3077
1491853181.4403309822,1491853181.4426279068, -0.2910, -0.0776, -0.0014,  0.0274,  0.0558,  0.3077
1491853181.4429969788,1491853181.4453001022, -0.2910, -0.0776, -0.0014,  0.0472,  0.0676,  0.3368
1491853181.4456689358,1491853181.4479629993, -0.2910, -0.0776, -0.0014,  0.0472,  0.0676,  0.3368
1491853181.4483330250,1491853181.4506270885, -0.2910, -0.0776, -0.0014,  0.0472,  0.0676,  0.3368
1491853181.4509971142,1491853181.4532940388, -0.2910, -0.0776, -0.0014,  0.0472,  0.0676,  0.3368
1491853181.4536619186,1491853181.4560298920, -0.2910, -0.0776, -0.0014,  0.0396,  0.0455,  0.3816
1491853181.4563980103,1491853181.4586949348, -0.3073, -0.1183,  0.0439,  0.0396,  0.0455,  0.3816
1491853181.4590630531,1491853181.4613599777, -0.3073, -0.1183,  0.0439,  0.0396,  0.0455,  0.3816
1491853181.4617300034,1491853181.4640710354, -0.3073, -0.1183,  0.0439,  0.0396,  0.0455,  0.3816
1491853181.4644510746,1491853181.4668788910, -0.3073, -0.1183,  0.0439,  0.0654,  0.0407,  0.4369
1491853181.4672560692,1491853181.4696829319, -0.3073, -0.1183,  0.0439,  0.0654,  0.0407,  0.4369
1491853181.4700589180,1491853181.4724850655, -0.3073, -0.1183,  0.0439,  0.0654,  0.0407,  0.4369
1491853181.4728620052,1491853181.4752960205, -0.3073, -0.1183,  0.0439,  0.0654,  0.0384,  0.4930
1491853181.4756729603,1491853181.4780960083, -0.2370, -0.1385,  0.0226,  0.1348,  0.0384,  0.4930
1491853181.4784729481,1491853181.4809029102, -0.2421, -0.1385,  0.0226,  0.1348,  0.0384,  0.4930
1491853181.4812779427,1491853181.4837028980, -0.2421, -0.1385,  0.0226,  0.1348,  0.0384,  0.4930
1491853181.4840860367,1491853181.4865019321, -0.2421, -0.1385,  0.0226,  0.1917, -0.0036,  0.5490
1491853181.4868769646,1491853181.4893019199, -0.2421, -0.1385,  0.0226,  0.1917, -0.0036,  0.5490
1491853181.4896769524,1491853181.4920980930, -0.2421, -0.1385,  0.0226,  0.1917, -0.0036,  0.5490
1491853181.4924740791,1491853181.4948699474, -0.2421, -0.1385,  0.0226,  0.1917, -0.0036,  0.5490
1491853181.4952399731,1491853181.4975399971, -0.2421, -0.1559,  0.0777,  0.1715, -0.0917,  0.6339
1491853181.4979090691,1491853181.5002100468, -0.4913, -0.1559,  0.0777,  0.1715, -0.0917,  0.6339
1491853181.5005779266,1491853181.5028779507, -0.4913, -0.1559,  0.0777,  0.1715, -0.0917,  0.6339
1491853181.5032460690,1491853181.5056829453, -0.4913, -0.1559,  0.0777,  0.1715, -0.0917,  0.7336
1491853181.5060589314,1491853181.5084819794, -0.4913, -0.1559,  0.0777,  0.0550, -0.0198,  0.7336
1491853181.5088570118,1491853181.5112791061, -0.4913, -0.1559,  0.0777,  0.0550, -0.0198,  0.7336
1491853181.5116550922,1491853181.5140941143, -0.4913, -0.1559,  0.0777,  0.0550, -0.0198,  0.7336
1491853181.5144679546,1491853181.5168869495, -0.4913, -0.1559,  0.0414, -0.0532,  0.1230,  0.7578
1491853181.5172629356,1491853181.5196869373, -0.3903,  0.1847,  0.0414, -0.0532,  0.1230,  0.7578
1491853181.5200629234,1491853181.5224859715, -0.3903,  0.1847,  0.0414, -0.0532,  0.1230,  0.7578
1491853181.5228619576,1491853181.5252990723, -0.3903,  0.1847,  0.0414, -0.0532,  0.1230,  0.7578
1491853181.5256760120,1491853181.5280981064, -0.3903,  0.1847,  0.0414, -0.0219,  0.0743,  0.7254
1491853181.5284750462,1491853181.5308980942, -0.3903,  0.1847,  0.0414, -0.0219,  0.0743,  0.7254
1491853181.5312728882,1491853181.5337018967, -0.3903,  0.1847,  0.0414, -0.0219,  0.0743,  0.7254
1491853181.5340869427,1491853181.5363891125, -0.3903,  0.1847,  0.0258, -0.0219,  0.0743,  0.7020
1491853181.5367588997,1491853181.5390610695, -0.4114, -0.0561,  0.0267,  0.0233,  0.0933,  0.7018
1491853181.5394310951,1491853181.5417280197, -0.4114, -0.0561,  0.0267,  0.0233,  0.0933,  0.7018
1491853181.5420958996,1491853181.5444469452, -0.4114, -0.0561,  0.0267,  0.0233,  0.0933,  0.7018
1491853181.5449330807,1491853181.5472340584, -0.4114, -0.0561,  0.0267,  0.0233,  0.1479,  0.6542
1491853181.5476028919,1491853181.5499019623, -0.4114, -0.0561,  0.0267, -0.0321,  0.1438,  0.6542
1491853181.5502700806,1491853181.5525679588, -0.4114, -0.0561,  0.0267, -0.0321,  0.1438,  0.6542
1491853181.5529370308,1491853181.5553140640, -0.4114, -0.0561,  0.0267, -0.0321,  0.1438,  0.6542
1491853181.5556910038,1491853181.5581159592, -0.2401, -0.0606,  0.0506, -0.0439,  0.0796,  0.5662
1491853181.5584928989,1491853181.5609159470, -0.2401, -0.0606,  0.0506, -0.0439,  0.0796,  0.5662
1491853181.5612909794,1491853181.5637099743, -0.2401, -0.0606,  0.0506, -0.0439,  0.0796,  0.5662
1491853181.5640959740,1491853181.5665290356, -0.2401, -0.0606,  0.0506, -0.0439,  0.0796,  0.5662
1491853181.5669050217,1491853181.5693299770, -0.2401, -0.0606,  0.0506,  0.0266,  0.0699,  0.4694
1491853181.5697050095,1491853181.5721349716, -0.2401, -0.0606,  0.0506,  0.0266,  0.0699,  0.4694
1491853181.5725100040,1491853181.5749449730, -0.2401, -0.0606,  0.0506,  0.0266,  0.0699,  0.4694
1491853181.5753219128,1491853181.5777420998, -0.0108,  0.1707,  0.0097,  0.0266,  0.0699,  0.3372
1491853181.5781168938,1491853181.5805439949, -0.0108,  0.1707,  0.0097,  0.0602,  0.1037,  0.3372
1491853181.5809190273,1491853181.5833470821, -0.0108,  0.1707,  0.0097,  0.0602,  0.1037,  0.3372
1491853181.5837259293,1491853181.5860610008, -0.0108,  0.1707,  0.0097,  0.0602,  0.1037,  0.3372
1491853181.5864300728,1491853181.5887339115, -0.0108,  0.1707,  0.0097,  0.1463,  0.0627,  0.1245
1491853181.5891020298,1491853181.5914030075, -0.0108,  0.1707,  0.0097,  0.1463,  0.0627,  0.1245
1491853181.5917730331,1491853181.5941319466, -0.0108,  0.1707,  0.0097,  0.1463,  0.0627,  0.1245
1491853181.5945110321,1491853181.5969319344, -0.1280, -0.0565,  0.0033,  0.1463,  0.0627,  0.1245
1491853181.5973110199,1491853181.5997390747, -0.1250, -0.0565,  0.0033,  0.0708,  0.0584, -0.0420
1491853181.6001150608,1491853181.6025400162, -0.1250, -0.0565,  0.0033,  0.0708,  0.0584, -0.0420
1491853181.6029160023,1491853181.6053569317, -0.1250, -0.0565,  0.0033,  0.0708,  0.0584, -0.0420
1491853181.6057329178,1491853181.6081600189, -0.1250, -0.0565,  0.0033,  0.0708,  0.0584, -0.0420
1491853181.6085369587,1491853181.6109631062, -0.1250, -0.0565,  0.0033,  0.0257,  0.0682, -0.1293
1491853181.6113400459,1491853181.6137640476, -0.1250, -0.0565,  0.0033,  0.0257,  0.0682, -0.1293
1491853181.6141479015,1491853181.6165730953, -0.1250, -0.0826, -0.0037,  0.0257,  0.0682, -0.1293
1491853181.6169509888,1491853181.6193768978, -0.1475, -0.0826, -0.0037,  0.0257,  0.0532, -0.1772
1491853181.6197528839,1491853181.6221809387, -0.1475, -0.0826, -0.0037,  0.0158,  0.0532, -0.1772
1491853181.6225569248,1491853181.6249880791, -0.1475, -0.0826, -0.0037,  0.0158,  0.0532, -0.1772
1491853181.6253650188,1491853181.6277859211, -0.1475, -0.0826, -0.0037,  0.0158,  0.0532, -0.1772
1491853181.6281630993,1491853181.6305890083, -0.1475, -0.0826, -0.0037, -0.0135,  0.0501, -0.1893
1491853181.6309649944,1491853181.6333909035, -0.1475, -0.0826, -0.0037, -0.0135,  0.0501, -0.1893
1491853181.6337680817,1491853181.6360828876, -0.1475, -0.0435,  0.0007, -0.0135,  0.0501, -0.1893
1491853181.6364519596,1491853181.6387510300, -0.0889, -0.0468,  0.0007, -0.0135,  0.0501, -0.1893
1491853181.6391210556,1491853181.6414198875, -0.0889, -0.0468,  0.0007, -0.0340,  0.0420, -0.2043
1491853181.6417889595,1491853181.6441230774, -0.0889, -0.0468,  0.0007, -0.0340,  0.0420, -0.2043
1491853181.6445000172,1491853181.6469280720, -0.0889, -0.0468,  0.0007, -0.0340,  0.0420, -0.2043
1491853181.6473059654,1491853181.6497359276, -0.0889, -0.0468,  0.0007, -0.0340,  0.0420, -0.2504
1491853181.6501100063,1491853181.6525380611, -0.0889, -0.0468,  0.0007, -0.0495,  0.0390, -0.2504
1491853181.6529150009,1491853181.6553490162, -0.0889, -0.0468,  0.0007, -0.0495,  0.0390, -0.2504
1491853181.6557240486,1491853181.6581509113, -0.0632, -0.0167,  0.0034, -0.0495,  0.0390, -0.2504
1491853181.6585249901,1491853181.6609599590, -0.0632, -0.0167,  0.0034, -0.0608,  0.0435, -0.3122
1491853181.6614480019,1491853181.6638710499, -0.0632, -0.0167,  0.0034, -0.0608,  0.0435, -0.3122
1491853181.6642830372,1491853181.6667089462, -0.0632, -0.0167,  0.0034, -0.0608,  0.0435, -0.3122
1491853181.6670858860,1491853181.6695098877, -0.0632, -0.0167,  0.0034, -0.0608,  0.0435, -0.3122
1491853181.6698880196,1491853181.6723129749, -0.0632, -0.0167,  0.0034, -0.0747,  0.0476, -0.3764
1491853181.6726880074,1491853181.6751279831, -0.0632, -0.0167,  0.0034, -0.0747,  0.0476, -0.3764
1491853181.6755049229,1491853181.6779370308, -0.0732, -0.0128,  0.0074, -0.0747,  0.0476, -0.3764
1491853181.6783120632,1491853181.6807379723, -0.0732, -0.0128,  0.0074, -0.0747,  0.0476, -0.4337
1491853181.6811149120,1491853181.6835370064, -0.0732, -0.0128,  0.0074, -0.0766,  0.0468, -0.4337
1491853181.6839148998,1491853181.6862289906, -0.0732, -0.0128,  0.0074, -0.0766,  0.0468, -0.4337
1491853181.6865980625,1491853181.6888999939, -0.0732, -0.0128,  0.0074, -0.0766,  0.0468, -0.4337
1491853181.6892681122,1491853181.6915669441, -0.0732, -0.0128,  0.0074, -0.0688,  0.0418, -0.4799
1491853181.6919360161,1491853181.6942999363, -0.0732, -0.0128,  0.0074, -0.0674,  0.0418, -0.4799
1491853181.6946699619,1491853181.6969699860, -0.0896, -0.0034,  0.0074, -0.0674,  0.0418, -0.4799
1491853181.6973400116,1491853181.6996390820, -0.0896, -0.0034,  0.0074, -0.0674,  0.0418, -0.4799
1491853181.7000079155,1491853181.7023069859, -0.0896, -0.0034,  0.0074, -0.0477,  0.0284, -0.5161
1491853181.7026760578,1491853181.7050869465, -0.0896, -0.0034,  0.0074, -0.0477,  0.0284, -0.5161
1491853181.7054629326,1491853181.7078869343, -0.0896, -0.0034,  0.0074, -0.0477,  0.0284, -0.5161
1491853181.7082650661,1491853181.7106869221, -0.0896, -0.0034,  0.0074, -0.0477,  0.0284, -0.5161
1491853181.7110641003,1491853181.7134850025, -0.0896, -0.0034,  0.0074, -0.0216,  0.0099, -0.5453
1491853181.7138609886,1491853181.7162940502, -0.0985,  0.0036,  0.0151, -0.0216,  0.0099, -0.5453
1491853181.7166728973,1491853181.7190968990, -0.0985,  0.0036,  0.0151, -0.0216,  0.0099, -0.5453
1491853181.7194728851,1491853181.7218949795, -0.0985,  0.0036,  0.0151, -0.0216,  0.0099, -0.5705
1491853181.7222719193,1491853181.7247080803, -0.0985,  0.0036,  0.0151,  0.0042, -0.0097, -0.5705
1491853181.7250850201,1491853181.7275140285, -0.0985,  0.0036,  0.0151,  0.0042, -0.0097, -0.5705
1491853181.7278931141,1491853181.7303190231, -0.0985,  0.0036,  0.0151,  0.0042, -0.0097, -0.5705
1491853181.7306959629,1491853181.7331230640, -0.0985,  0.0036,  0.0151,  0.0269, -0.0321, -0.5935
1491853181.7335000038,1491853181.7358460426, -0.1182,  0.0081,  0.0103,  0.0269, -0.0321, -0.5935
1491853181.7362151146,1491853181.7385179996, -0.1182,  0.0081,  0.0103,  0.0269, -0.0321, -0.5935
1491853181.7388889790,1491853181.7411870956, -0.1182,  0.0081,  0.0103,  0.0269, -0.0321, -0.5935
1491853181.7415568829,1491853181.7438600063, -0.1182,  0.0081,  0.0103,  0.0487, -0.0530, -0.6153
1491853181.7442340851,1491853181.7466590405, -0.1182,  0.0081,  0.0103,  0.0487, -0.0530, -0.6153
1491853181.7470359802,1491853181.7494609356, -0.1182,  0.0081,  0.0103,  0.0487, -0.0530, -0.6153
1491853181.7498390675,1491853181.7522659302, -0.1182,  0.0081,  0.0103,  0.0487, -0.0530, -0.6153
1491853181.7526431084,1491853181.7550780773, -0.1182, -0.0153,  0.0124,  0.0638, -0.0692, -0.6303
1491853181.7554540634,1491853181.7578790188, -0.1532, -0.0138,  0.0124,  0.0638, -0.0692, -0.6303
1491853181.7582550049,1491853181.7606759071, -0.1532, -0.0138,  0.0124,  0.0638, -0.0692, -0.6303
1491853181.7610518932,1491853181.7634789944, -0.1532, -0.0138,  0.0124,  0.0638, -0.0849, -0.6337
1491853181.7638549805,1491853181.7662920952, -0.1532, -0.0138,  0.0124,  0.0713, -0.0849, -0.6337
1491853181.7666680813,1491853181.7690920830, -0.1532, -0.0138,  0.0124,  0.0713, -0.0849, -0.6337
1491853181.7694690228,1491853181.7718949318, -0.1532, -0.0138,  0.0124,  0.0713, -0.0849, -0.6337
1491853181.7722699642,1491853181.7746720314, -0.1532, -0.0138,  0.0043,  0.0653, -0.1009, -0.6336
1491853181.7750420570,1491853181.7773489952, -0.1901, -0.0199,  0.0043,  0.0653, -0.1009, -0.6336
1491853181.7778239250,1491853181.7801210880, -0.1901, -0.0199,  0.0043,  0.0653, -0.1009, -0.6336
1491853181.7804889679,1491853181.7827899456, -0.1901, -0.0199,  0.0043,  0.0653, -0.1009, -0.6336
1491853181.7831599712,1491853181.7855629921, -0.1901, -0.0199,  0.0043,  0.0523, -0.1120, -0.6331
1491853181.7859408855,1491853181.7883679867, -0.1901, -0.0199,  0.0043,  0.0523, -0.1120, -0.6331
1491853181.7887449265,1491853181.7911670208, -0.1901, -0.0199,  0.0043,  0.0523, -0.1120, -0.6331
1491853181.7915430069,1491853181.7939689159, -0.1901, -0.0199,  0.0043,  0.0523, -0.1120, -0.6371
1491853181.7943990231,1491853181.7968270779, -0.2121, -0.0244,  0.0044,  0.0327, -0.1234, -0.6371
1491853181.7972030640,1491853181.7996289730, -0.2121, -0.0244,  0.0044,  0.0327, -0.1234, -0.6371
1491853181.8000071049,1491853181.8024330139, -0.2121, -0.0244,  0.0044,  0.0327, -0.1234, -0.6371
1491853181.8028120995,1491853181.8052868843, -0.2121, -0.0244,  0.0044,  0.0139, -0.1369, -0.6409
1491853181.8056631088,1491853181.8080909252, -0.2121, -0.0244,  0.0044,  0.0139, -0.1369, -0.6409
