timestamp_before,timestamp_after,accel_x,accel_y,accel_z,gyro_x,gyro_y,gryo_z
        0.0000028991,        0.0030250930, -1.1213, -0.0210, -0.2378, -9.1248,-14.6942,-12.5732
        0.0034640216,        0.0057618999, -1.1213, -0.0210, -0.2061, -9.1248,-14.6942,-12.5732
        0.0061240577,        0.0084131145, -1.1079, -0.0635, -0.2061, -9.1248,-14.6942,-12.5732
        0.0087719344,        0.0110609912, -1.1079, -0.0635, -0.2061, -6.2103,-16.4948,-11.6577
        0.0114190959,        0.0139749431, -1.1079, -0.0635, -0.2061, -6.2103,-16.4948,-11.6577
        0.0143340015,        0.0166221046, -1.1079, -0.0635, -0.2061, -6.2103,-16.4948,-11.6577
        0.0169780635,        0.0192718887, -1.1079, -0.0635, -0.2061, -6.2103,-16.4948,-11.6577
        0.0196280860,        0.0221319579, -1.1079, -0.0635, -0.2061, -2.8534,-16.3879,-10.1929
        0.0224919700,        0.0247869872, -1.1079, -0.0635, -0.2061, -2.8534,-16.3879,-10.1929
        0.0251438998,        0.0274370097, -1.1304, -0.0464, -0.1545, -2.8534,-16.3879,-10.1929
        0.0277920150,        0.0300839328, -1.1304, -0.0464, -0.1545, -2.8534,-16.3879,-10.1929
        0.0304389381,        0.0329230212, -1.1304, -0.0464, -0.1545, -1.0681,-15.4724, -8.9111
        0.0332770728,        0.0355680370, -1.1304, -0.0464, -0.1545, -1.0681,-15.4724, -8.9111
        0.0359249496,        0.0382190131, -1.1304, -0.0464, -0.1545, -1.0681,-15.4724, -8.9111
        0.0385759257,        0.0408740424, -1.1304, -0.0464, -0.1545, -1.0681,-15.4724, -8.9111
        0.0412269019,        0.0435309791, -1.1304, -0.0464, -0.1545,  0.0458,-14.3433, -8.6823
        0.0438859843,        0.0461810016, -1.1304, -0.0464, -0.1462,  0.0458,-14.3433, -8.6823
        0.0465350532,        0.0488319778, -1.1270, -0.0374, -0.1462,  0.0458,-14.3433, -8.6823
        0.0491850757,        0.0514738940, -1.1270, -0.0374, -0.1462,  0.0458,-14.3433, -8.6823
        0.0518279456,        0.0541210555, -1.1270, -0.0374, -0.1462,  1.8158,-13.8397, -8.6670
        0.0544779681,        0.0567689323, -1.1270, -0.0374, -0.1462,  1.8158,-13.8397, -8.6670
        0.0571248912,        0.0594189548, -1.1270, -0.0374, -0.1462,  1.8158,-13.8397, -8.6670
        0.0597739600,        0.0620758914, -1.1270, -0.0374, -0.1462,  1.8158,-13.8397, -8.6670
        0.0624299430,        0.0647240066, -1.1270, -0.0374, -0.1462,  1.8158,-14.1602, -9.2773
        0.0652740382,        0.0675719165, -1.1323, -0.0325, -0.1655,  2.5940,-14.1602, -9.2773
        0.0679269218,        0.0702190780, -1.1323, -0.0325, -0.1655,  2.5940,-14.1602, -9.2773
        0.0705740832,        0.0731039428, -1.1323, -0.0325, -0.1655,  2.5940,-14.1602, -9.2773
        0.0734630012,        0.0758579158, -1.1323, -0.0325, -0.1655,  3.8605,-14.3127,-10.2997
        0.0762169742,        0.0804798984, -1.1323, -0.0325, -0.1655,  3.8605,-14.3127,-10.2997
        0.0808411025,        0.0831740283, -1.1323, -0.0325, -0.1655,  3.8605,-14.3127,-10.2997
        0.0835318946,        0.0858269118, -1.1323, -0.0325, -0.1655,  3.8605,-14.3127,-11.7188
        0.0861850166,        0.0884778880, -1.1399, -0.0139, -0.1787,  5.4169,-14.8621,-11.7188
        0.0888350391,        0.0911350631, -1.1399, -0.0139, -0.1787,  5.4169,-14.8621,-11.7188
        0.0914910220,        0.0937910461, -1.1399, -0.0139, -0.1787,  5.4169,-14.8621,-11.7188
        0.0941470050,        0.0964420222, -1.1399, -0.0139, -0.1787,  5.4169,-14.8621,-11.7188
        0.0967979812,        0.0990939521, -1.1399, -0.0139, -0.1787,  6.5765,-15.4114,-12.8937
        0.0994511031,        0.1017859363, -1.1399, -0.0139, -0.1787,  6.5765,-15.4114,-12.8937
        0.1021430873,        0.1044431113, -1.1399, -0.0139, -0.1787,  6.5765,-15.4114,-12.8937
        0.1048028850,        0.1070950412, -1.1013,  0.0388, -0.1755,  6.5765,-15.4114,-12.8937
        0.1074540996,        0.1097410106, -1.1013,  0.0388, -0.1755,  6.9122,-16.1285,-14.3890
        0.1100969695,        0.1124000930, -1.1013,  0.0388, -0.1755,  6.9122,-16.1285,-14.3890
        0.1127570056,        0.1150510692, -1.1013,  0.0388, -0.1755,  6.9122,-16.1285,-14.3890
        0.1155519866,        0.1178470039, -1.1013,  0.0388, -0.1755,  6.9122,-16.1285,-14.3890
        0.1182029628,        0.1204920196, -1.1013,  0.0388, -0.1755,  5.7678,-16.6016,-16.0065
        0.1208498859,        0.1232591056, -1.1013,  0.0388, -0.1755,  5.7678,-16.6016,-16.0065
        0.1236191177,        0.1259189033, -1.1013,  0.0388, -0.1755,  5.7678,-16.6016,-16.0065
        0.1262739085,        0.1285720252, -1.0957,  0.0181, -0.1707,  5.7678,-16.6016,-16.0065
        0.1289310836,        0.1312261008, -1.0957,  0.0181, -0.1707,  4.3182,-16.6626,-17.4408
        0.1315839671,        0.1340120219, -1.0957,  0.0181, -0.1707,  4.3182,-16.6626,-17.4408
        0.1343679809,        0.1366680049, -1.0957,  0.0181, -0.1707,  4.3182,-16.6626,-17.4408
        0.1370249175,        0.1393258952, -1.0957,  0.0181, -0.1707,  4.3182,-16.6626,-17.4408
        0.1396839999,        0.1420150184, -1.0957,  0.0181, -0.1707,  2.9907,-16.4337,-17.9138
        0.1423800372,        0.1448018932, -1.0957,  0.0181, -0.1707,  2.9907,-16.4337,-17.9138
        0.1451669120,        0.1475899600, -1.0879, -0.1079, -0.1228,  2.9907,-16.4337,-17.9138
        0.1479559325,        0.1503789806, -1.0879, -0.1079, -0.1228,  2.9907,-16.4337,-17.9138
        0.1507449531,        0.1531811141, -1.0879, -0.1079, -0.1228,  3.9368,-15.4266,-17.3950
        0.1535480403,        0.1560039901, -1.0879, -0.1079, -0.1228,  3.9368,-15.4266,-17.3950
        0.1563630485,        0.1586590194, -1.0879, -0.1079, -0.1228,  3.9368,-15.4266,-17.3950
        0.1590140247,        0.1613119029, -1.0879, -0.1079, -0.1228,  3.9368,-15.4266,-17.3950
        0.1616690540,        0.1641300105, -1.0879, -0.1079, -0.1228,  7.9498,-14.3738,-16.6321
        0.1644940757,        0.1668780231, -1.0879, -0.1079, -0.1001,  7.9498,-14.3738,-16.6321
        0.1682269954,        0.1727600478, -1.0679, -0.0923, -0.1001,  7.9498,-14.3738,-16.6321
        0.1737308883,        0.1780259990, -1.0679, -0.0923, -0.1001, 12.2986,-13.7177,-15.1978
        0.1783910178,        0.1811180495, -1.0679, -0.0923, -0.1001, 12.2986,-13.7177,-15.1978
        0.1814809226,        0.1843629264, -1.0679, -0.0923, -0.1001, 12.2986,-13.7177,-13.7787
        0.1847250842,        0.1870279693, -1.0679, -0.0979, -0.0835, 16.6779,-12.9242,-13.7787
        0.1873889350,        0.1896820449, -1.0825, -0.0979, -0.0835, 16.6779,-12.9242,-13.7787
        0.1900399112,        0.1924031161, -1.0825, -0.0979, -0.0835, 16.6779,-12.9242,-13.7787
        0.1927640819,        0.1950590991, -1.0825, -0.0979, -0.0835, 16.6779,-12.9242,-12.2528
        0.1954210185,        0.1977100753, -1.0825, -0.0979, -0.0835, 19.7754,-12.4512,-12.2528
        0.1980679416,        0.2003550910, -1.0825, -0.0979, -0.0835, 19.7754,-12.4512,-12.2528
        0.2007139110,        0.2030220412, -1.0825, -0.0979, -0.0835, 19.7754,-12.4512,-12.2528
        0.2033830070,        0.2056761169, -1.0825, -0.0979, -0.0835, 19.7754,-12.4512, -8.3466
        0.2060330295,        0.2083290004, -1.1067, -0.1353, -0.0952, 21.0724,-11.9629,-10.6812
        0.2086890124,        0.2109771156, -1.1067, -0.1353, -0.0952, 21.0724,-11.9629,-10.6812
        0.2113380813,        0.2136969947, -1.1067, -0.1353, -0.0952, 21.0724,-11.9629,-10.6812
        0.2140560531,        0.2163501167, -1.1067, -0.1353, -0.0952, 21.0724,-11.9629,-10.6812
        0.2167098903,        0.2190039539, -1.1067, -0.1353, -0.0952, 20.7214,-11.4746, -9.9487
        0.2193620586,        0.2216549300, -1.1067, -0.1353, -0.0952, 20.7214,-11.4746, -9.9487
        0.2220549964,        0.2243540668, -1.1067, -0.1353, -0.0952, 20.7214,-11.4746, -9.9487
        0.2247109794,        0.2270040893, -1.1067, -0.0728, -0.0886, 20.7214,-11.4746, -9.9487
        0.2273641013,        0.2296591186, -1.0981, -0.0837, -0.0886, 19.2719,-11.5967, -8.8959
        0.2300169849,        0.2324870013, -1.0981, -0.0837, -0.0886, 19.2719,-11.5967, -8.8959
        0.2328451060,        0.2351379775, -1.0981, -0.0837, -0.0886, 19.2719,-11.5967, -8.8959
        0.2354948901,        0.2377880000, -1.0981, -0.0837, -0.0886, 19.2719,-11.5967, -8.8959
        0.2382738971,        0.2405650996, -1.0981, -0.0837, -0.0886, 18.6157,-11.4441, -8.8348
        0.2409260654,        0.2432630443, -1.0981, -0.0837, -0.0886, 18.6157,-11.4441, -8.8348
        0.2436221027,        0.2459218883, -1.0981, -0.0837, -0.0886, 18.6157,-11.4441, -8.8348
        0.2462790393,        0.2485731029, -1.0876, -0.0500, -0.1079, 18.6157,-11.4441, -8.8348
        0.2489300155,        0.2512340926, -1.0876, -0.0500, -0.1079, 17.7307,-11.6882, -9.1858
        0.2515919589,        0.2540140533, -1.0876, -0.0500, -0.1079, 17.7307,-11.6882, -9.1858
        0.2543819331,        0.2568080806, -1.0876, -0.0500, -0.1079, 17.7307,-11.6882, -9.1858
        0.2571740531,        0.2596021079, -1.0876, -0.0500, -0.1079, 17.7307,-11.6882, -9.1858
        0.2599668883,        0.2624009036, -1.0876, -0.0500, -0.1079, 16.3727,-12.0087,-10.2692
        0.2627690219,        0.2651870631, -1.0876, -0.0500, -0.1079, 16.3727,-12.0087,-10.2692
        0.2655530357,        0.2679810905, -1.1174, -0.0220, -0.1584, 16.3727,-12.0087,-10.2692
        0.2683499240,        0.2707651042, -1.1174, -0.0220, -0.1584, 16.3727,-12.0087,-10.2692
        0.2711310767,        0.2737450980, -1.1174, -0.0220, -0.1584, 14.6179,-12.2681,-11.8713
        0.2741101169,        0.2764969253, -1.1174, -0.0220, -0.1584, 14.6179,-12.2681,-11.8713
        0.2768619441,        0.2821131133, -1.1174, -0.0220, -0.1584, 14.6179,-12.2681,-14.3433
        0.2824769401,        0.2853689574, -1.1174, -0.0220, -0.1584, 11.6272,-12.4207,-14.3433
        0.2857299232,        0.2880208873, -1.1223, -0.0232, -0.1594, 11.6272,-12.4207,-14.3433
        0.2883789920,        0.2906740092, -1.1223, -0.0232, -0.1594, 11.6272,-12.4207,-14.3433
        0.2910330676,        0.2933400058, -1.1223, -0.0232, -0.1594, 11.6272,-12.4207,-17.2424
        0.2937000178,        0.2959919357, -1.1223, -0.0232, -0.1594,  7.9346,-12.2986,-17.2424
        0.2963490867,        0.2986390971, -1.1223, -0.0232, -0.1594,  7.9346,-12.2986,-17.2424
        0.2989950561,        0.3012869739, -1.1223, -0.0232, -0.1594,  7.9346,-12.2986,-17.2424
        0.3016429328,        0.3039439105, -1.1223, -0.0232, -0.1594,  7.9346,-12.2986,-20.8130
        0.3042989158,        0.3065920257, -1.1223, -0.0232, -0.1594,  3.4790,-12.1002,-20.8130
        0.3069489383,        0.3092430019, -1.1089, -0.0625, -0.0991,  3.4790,-12.1002,-20.8130
        0.3096011066,        0.3118939780, -1.1089, -0.0625, -0.0991,  3.4790,-12.1002,-20.8130
        0.3122508907,        0.3145459079, -1.1089, -0.0625, -0.0991,  3.4790,-12.1002,-24.7192
        0.3149040126,        0.3171980762, -1.1089, -0.0625, -0.0991,  1.1749,-11.8713,-25.3143
        0.3175559425,        0.3198490524, -1.1089, -0.0625, -0.0991,  1.1749,-11.8713,-25.3143
        0.3202069186,        0.3225469970, -1.1089, -0.0625, -0.0991,  1.1749,-11.8713,-25.3143
        0.3229039096,        0.3251951121, -1.1089, -0.0625, -0.0991,  1.1749,-11.8713,-25.3143
        0.3255529784,        0.3278479957, -1.1714,  0.0127, -0.0710,  1.2970,-11.1694,-29.2816
        0.3282039546,        0.3304961108, -1.1399,  0.0127, -0.0710,  1.2970,-11.1694,-29.2816
        0.3308520698,        0.3332369708, -1.1399,  0.0127, -0.0710,  1.2970,-11.1694,-29.2816
        0.3335938834,        0.3358800792, -1.1399,  0.0127, -0.0710,  1.2970,-11.1694,-29.2816
        0.3362379455,        0.3385250949, -1.1399,  0.0127, -0.0710,  2.1515,-10.6049,-31.8909
        0.3388820075,        0.3411720180, -1.1399,  0.0127, -0.0710,  2.1515,-10.6049,-31.8909
        0.3415298843,        0.3440010928, -1.1399,  0.0127, -0.0710,  2.1515,-10.6049,-31.8909
        0.3443589591,        0.3466470622, -1.1399,  0.0127, -0.0710,  2.1515,-10.6049,-31.8909
        0.3470039748,        0.3492920779, -1.1716,  0.0310, -0.0811,  2.8534,-10.0555,-34.3628
        0.3496480369,        0.3521750354, -1.1716,  0.0310, -0.0811,  2.8534,-10.0555,-34.3628
        0.3525369548,        0.3548279189, -1.1716,  0.0310, -0.0811,  2.8534,-10.0555,-34.3628
        0.3551869773,        0.3574769878, -1.1716,  0.0310, -0.0811,  2.8534,-10.0555,-34.3628
        0.3579531097,        0.3602478885, -1.1716,  0.0310, -0.0811,  1.6327, -9.5673,-36.9873
        0.3606040858,        0.3630829238, -1.1716,  0.0310, -0.0811,  1.6327, -9.5673,-36.9873
        0.3634400748,        0.3657329463, -1.1716,  0.0310, -0.0811,  1.6327, -9.5673,-36.9873
        0.3660910510,        0.3685970687, -1.1770, -0.0947, -0.1431,  1.6327, -9.5673,-36.9873
        0.3689520740,        0.3712470912, -1.1770, -0.0947, -0.1431,  0.8240, -9.4452,-40.3900
        0.3716020965,        0.3739760303, -1.1770, -0.0947, -0.1431,  0.8240, -9.4452,-40.3900
        0.3743520164,        0.3775289439, -1.1770, -0.0947, -0.1431,  0.8240, -9.4452,-40.3900
        0.3778899097,        0.3801899337, -1.1770, -0.0947, -0.1431,  0.8240, -9.4452,-43.6249
        0.3805470847,        0.3834031009, -1.1770, -0.0947, -0.1431,  0.4578, -8.5144,-43.6249
        0.3837600135,        0.3860540771, -1.1770, -0.0947, -0.1431,  0.4578, -8.5144,-43.6249
        0.3864119434,        0.3893089675, -1.1443, -0.1458, -0.2163,  0.4578, -8.5144,-43.6249
        0.3896639728,        0.3926248931, -1.1443, -0.1458, -0.2163,  2.6550, -7.7362,-47.1497
        0.3935640239,        0.3958599948, -1.1443, -0.1458, -0.2163,  2.6550, -7.7362,-47.1497
        0.3962150001,        0.3985059642, -1.1443, -0.1458, -0.2163,  2.6550, -7.7362,-47.1497
        0.3988590621,        0.4011500262, -1.1443, -0.1458, -0.2163,  2.6550, -7.7362,-47.1497
        0.4015028857,        0.4037959956, -1.1443, -0.1458, -0.2163,  8.8959, -5.9357,-48.6298
        0.4041500472,        0.4064410113, -1.1443, -0.1458, -0.2163,  8.8959, -5.9357,-48.6298
        0.4067950629,        0.4090800666, -1.1257, -0.1484, -0.2534,  8.8959, -5.9357,-48.6298
        0.4094360255,        0.4117710971, -1.1257, -0.1484, -0.2534,  8.8959, -5.9357,-48.6298
        0.4121249103,        0.4144161128, -1.1257, -0.1484, -0.2534, 17.0898, -4.3640,-48.7823
        0.4147711181,        0.4170589828, -1.1257, -0.1484, -0.2534, 17.0898, -4.3640,-48.7823
        0.4174149417,        0.4197080516, -1.1257, -0.1484, -0.2534, 17.0898, -4.3640,-48.7823
        0.4200630569,        0.4224350833, -1.1257, -0.1484, -0.2534, 17.0898, -4.3640,-48.7823
        0.4227919959,        0.4250820064, -1.1257, -0.1484, -0.2534, 23.5138, -3.7842,-49.3317
        0.4254379653,        0.4277310752, -1.1257, -0.1484, -0.2849, 23.5138, -3.7842,-49.3317
        0.4280870341,        0.4303799056, -1.0986, -0.1128, -0.2849, 23.5138, -3.7842,-49.3317
        0.4307380103,        0.4330370807, -1.0986, -0.1128, -0.2849, 23.5138, -3.7842,-49.3317
        0.4333930396,        0.4356871032, -1.0986, -0.1128, -0.2849, 27.4048, -2.8839,-49.7131
        0.4360440158,        0.4383340263, -1.0986, -0.1128, -0.2849, 27.4048, -2.8839,-49.7131
        0.4386918925,        0.4409749889, -1.0986, -0.1128, -0.2849, 27.4048, -2.8839,-49.7131
        0.4413330936,        0.4438081168, -1.0986, -0.1128, -0.2849, 27.4048, -2.8839,-49.7131
        0.4441659831,        0.4464509868, -1.0986, -0.1128, -0.2849, 26.3672, -1.1902,-49.7284
        0.4468090915,        0.4491041087, -1.1223, -0.1118, -0.2961, 26.3672, -1.1902,-49.7284
        0.4494591140,        0.4518850230, -1.1223, -0.1118, -0.2961, 26.3672, -1.1902,-49.7284
        0.4522450351,        0.4545350455, -1.1223, -0.1118, -0.2961, 26.3672, -1.1902,-49.7284
        0.4548910045,        0.4571841144, -1.1223, -0.1118, -0.2961, 22.4609,  0.6104,-51.1017
        0.4575419807,        0.4598310374, -1.1223, -0.1118, -0.2961, 19.6838,  0.6104,-51.1017
        0.4601900958,        0.4625840568, -1.1223, -0.1118, -0.2961, 19.6838,  0.6104,-51.1017
        0.4629500293,        0.4653718852, -1.1223, -0.1118, -0.2961, 19.6838,  0.6104,-51.1017
        0.4657390498,        0.4681599521, -1.1223, -0.1743, -0.2197, 11.8713,  1.9531,-52.9022
        0.4685240173,        0.4709511184, -1.1462, -0.1790, -0.2197, 11.8561,  1.9531,-52.9022
        0.4713170909,        0.4736760043, -1.1462, -0.1790, -0.2197, 11.8561,  1.9531,-52.9022
        0.4741480731,        0.4766459846, -1.1462, -0.1790, -0.2197, 11.8561,  1.9531,-52.9022
        0.4770040893,        0.4793079280, -1.1462, -0.1790, -0.2197,  9.3689,  3.2501,-54.6570
        0.4796610259,        0.4821501159, -1.1462, -0.1790, -0.2197,  9.3689,  3.2501,-54.6570
        0.4825048827,        0.4847889327, -1.1462, -0.1790, -0.2197,  9.3689,  3.2501,-54.6570
        0.4851448917,        0.4891400718, -1.1462, -0.1790, -0.2197,  9.3689,  3.2501,-54.6570
        0.4895010375,        0.4918339633, -1.1580, -0.2537, -0.1577, 14.4806,  3.9825,-54.9316
        0.4921920680,        0.4944830321, -1.1580, -0.2537, -0.1577, 14.4806,  3.9825,-54.9316
        0.4948399448,        0.4971299552, -1.1580, -0.2537, -0.1577, 14.4806,  3.9825,-54.9316
        0.4974849605,        0.4997740173, -1.1580, -0.2537, -0.1577, 14.4806,  3.9825,-54.9316
        0.5001290225,        0.5024319076, -1.1580, -0.2537, -0.1577, 23.4070,  4.3182,-53.2379
        0.5027869128,        0.5050809764, -1.1580, -0.2537, -0.1577, 23.4070,  4.3182,-53.2379
        0.5054400348,        0.5077319526, -1.1580, -0.2537, -0.1577, 23.4070,  4.3182,-53.2379
        0.5080910110,        0.5103800677, -1.1802, -0.1775, -0.1433, 23.4070,  4.3182,-53.2379
        0.5107350730,        0.5130360507, -1.1802, -0.1775, -0.1433, 29.8615,  4.2725,-50.4913
        0.5133929633,        0.5156839275, -1.1802, -0.1775, -0.1433, 29.8615,  4.2725,-50.4913
        0.5160398864,        0.5183360957, -1.1802, -0.1775, -0.1433, 29.8615,  4.2725,-50.4913
        0.5186899089,        0.5209861182, -1.1802, -0.1775, -0.1433, 29.8615,  4.2725,-50.4913
        0.5213430309,        0.5236800098, -1.1802, -0.1775, -0.1433, 30.5328,  4.6082,-46.6919
        0.5240381145,        0.5263278865, -1.1802, -0.1775, -0.1433, 30.5328,  4.6082,-46.6919
        0.5266859912,        0.5289729022, -1.1763,  0.0315, -0.1714, 30.5328,  4.6082,-46.6919
        0.5293300533,        0.5316210174, -1.1763,  0.0315, -0.1714, 30.5328,  4.6082,-46.6919
        0.5319779300,        0.5342688941, -1.1763,  0.0315, -0.1714, 22.2321,  5.6458,-44.3726
        0.5346260451,        0.5369210624, -1.1763,  0.0315, -0.1714, 22.2321,  5.6458,-44.3726
        0.5372770213,        0.5395729922, -1.1763,  0.0315, -0.1714, 22.2321,  5.6458,-44.3726
        0.5399299049,        0.5423119449, -1.1763,  0.0315, -0.1714, 22.2321,  5.6458,-44.3726
        0.5426719569,        0.5449650668, -1.1763,  0.0315, -0.1714,  6.1340,  7.2021,-43.7012
        0.5453210258,        0.5476060294, -1.1763,  0.0315, -0.1714,  6.1340,  7.2021,-43.7012
        0.5479588889,        0.5502500915, -1.1716,  0.1133, -0.2229,  6.1340,  7.2021,-43.7012
        0.5506029510,        0.5529439830, -1.1716,  0.1133, -0.2229,  6.1340,  7.2021,-43.7012
        0.5532958888,        0.5555830383, -1.1716,  0.1133, -0.2229,-14.0533,  9.2621,-43.8385
        0.5559409045,        0.5582309150, -1.1716,  0.1133, -0.2229,-14.0533,  9.2621,-43.8385
        0.5585909270,        0.5608780765, -1.1716,  0.1133, -0.2229,-14.0533,  9.2621,-43.8385
        0.5612380885,        0.5635381126, -1.1716,  0.1133, -0.2229,-14.0533,  9.2621,-43.8385
        0.5638950252,        0.5661890887, -1.1716,  0.1133, -0.2229,-33.5846, 10.5286,-43.5944
        0.5665479087,        0.5688360118, -1.2341,  0.0723, -0.2202,-33.2642, 10.5286,-43.5944
        0.5691950702,        0.5714860343, -1.2004,  0.0723, -0.2202,-33.2642, 10.5286,-43.5944
        0.5718510532,        0.5742750549, -1.2004,  0.0723, -0.2202,-33.2642, 10.5286,-43.5944
        0.5746429347,        0.5770640754, -1.2004,  0.0723, -0.2202,-48.8892, 11.3220,-43.5028
        0.5774319553,        0.5798941039, -1.2004,  0.0723, -0.2202,-47.1039, 11.3220,-43.5028
        0.5802550697,        0.5827339076, -1.2004,  0.0723, -0.2202,-47.1039, 11.3220,-43.5028
        0.5831001186,        0.5854869270, -1.2004,  0.0723, -0.2202,-47.1039, 11.3220,-43.5028
        0.5858519458,        0.5904970550, -1.2004,  0.0723, -0.2202,-52.9022, 11.3525,-41.2598
        0.5908589744,        0.5931909465, -1.2556,  0.0244, -0.2029,-52.9022, 11.3525,-41.2598
        0.5936730289,        0.5959659003, -1.2556,  0.0244, -0.2029,-52.9022, 11.3525,-41.2598
        0.5963259124,        0.5986190223, -1.2556,  0.0244, -0.2029,-52.9022, 11.3525,-38.1165
        0.5989780807,        0.6012719058, -1.2556,  0.0244, -0.2029,-51.4832, 10.3912,-38.1165
        0.6016331100,        0.6039379024, -1.2556,  0.0244, -0.2029,-51.4832, 10.3912,-38.1165
        0.6042979144,        0.6065950774, -1.2556,  0.0244, -0.2029,-51.4832, 10.3912,-38.1165
        0.6069550895,        0.6092400932, -1.3152,  0.0361, -0.2383,-51.4832, 10.3912,-34.1187
        0.6096001052,        0.6118979835, -1.3152,  0.0361, -0.2383,-45.4407,  8.7128,-34.1187
        0.6122570419,        0.6145530128, -1.3152,  0.0361, -0.2383,-45.4407,  8.7128,-34.1187
        0.6149111175,        0.6172039889, -1.3152,  0.0361, -0.2383,-45.4407,  8.7128,-34.1187
        0.6175609016,        0.6198540115, -1.3152,  0.0361, -0.2383,-45.4407,  8.7128,-30.2124
        0.6202121162,        0.6225500487, -1.3152,  0.0361, -0.2383,-37.1399,  6.9275,-31.0516
        0.6229079150,        0.6251979255, -1.3152,  0.0361, -0.2383,-37.1399,  6.9275,-31.0516
        0.6255550765,        0.6278520011, -1.3152,  0.0361, -0.2383,-37.1399,  6.9275,-31.0516
        0.6282110595,        0.6305010699, -1.3306,  0.0908, -0.2441,-37.1399,  6.9275,-31.0516
        0.6308570289,        0.6332800769, -1.3306,  0.0908, -0.2441,-29.1748,  5.7678,-29.0527
        0.6336379432,        0.6359401130, -1.3306,  0.0908, -0.2441,-29.1748,  5.7678,-29.0527
        0.6362989330,        0.6385960960, -1.3306,  0.0908, -0.2441,-29.1748,  5.7678,-29.0527
        0.6389539622,        0.6412489795, -1.3306,  0.0908, -0.2441,-29.1748,  5.7678,-29.0527
        0.6416058921,        0.6441209697, -1.3306,  0.0908, -0.2441,-23.6359,  5.5389,-27.2675
        0.6444850349,        0.6469049834, -1.3306,  0.0908, -0.2441,-23.6359,  5.5389,-27.2675
        0.6472690486,        0.6496959113, -1.2830,  0.2192, -0.2314,-23.6359,  5.5389,-27.2675
        0.6500609302,        0.6524439239, -1.2830,  0.2192, -0.2314,-23.6359,  5.5389,-27.2675
        0.6528020286,        0.6550970458, -1.2830,  0.2192, -0.2314,-21.7133,  5.7983,-25.2991
        0.6554520511,        0.6577558898, -1.2830,  0.2192, -0.2314,-21.7133,  5.7983,-25.2991
        0.6581120872,        0.6604040050, -1.2830,  0.2192, -0.2314,-21.7133,  5.7983,-25.2991
        0.6607590102,        0.6631439113, -1.2830,  0.2192, -0.2314,-21.7133,  5.7983,-25.2991
        0.6635001086,        0.6657939338, -1.2830,  0.2192, -0.2314,-24.6735,  6.6376,-22.6440
        0.6661520385,        0.6684379958, -1.2830,  0.2192, -0.2314,-24.6735,  6.6376,-22.6440
        0.6687939548,        0.6710861110, -1.2322,  0.3408, -0.2461,-24.6735,  6.6376,-22.6440
        0.6714411163,        0.6737699889, -1.2322,  0.3408, -0.2461,-24.6735,  6.6376,-22.6440
        0.6741249942,        0.6764159583, -1.2322,  0.3408, -0.2461,-30.9906,  8.7128,-18.1580
        0.6767719173,        0.6790669345, -1.2322,  0.3408, -0.2461,-30.9906,  8.7128,-18.1580
        0.6794898891,        0.6819610976, -1.2322,  0.3408, -0.2461,-30.9906,  8.7128,-18.1580
        0.6823220634,        0.6846130275, -1.2322,  0.3408, -0.2461,-30.9906,  8.7128,-18.1580
        0.6849708938,        0.6872671031, -1.2322,  0.3408, -0.2461,-38.8489,  9.9640,-11.9476
        0.6895630740,        0.6923139476, -1.1980,  0.4268, -0.2148,-38.8489,  9.9640,-11.9476
        0.6926870727,        0.6965520763, -1.1980,  0.4268, -0.2148,-38.8489,  9.9640,-11.9476
        0.6969149493,        0.6994939231, -1.1980,  0.4268, -0.2148,-47.8516, 11.0321, -4.1351
        0.6998539352,        0.7027779006, -1.1980,  0.4268, -0.2148,-47.8516, 11.0321, -4.1351
        0.7031400584,        0.7054329299, -1.1980,  0.4268, -0.2148,-47.8516, 11.0321, -4.1351
        0.7057888889,        0.7080829524, -1.1980,  0.4268, -0.2148,-57.3730, 11.5814,  3.9673
        0.7084389114,        0.7107301139, -1.1462,  0.4980, -0.2100,-57.3730, 11.5814,  3.9673
        0.7110860728,        0.7133880042, -1.1462,  0.4980, -0.2100,-57.3730, 11.5814,  3.9673
        0.7138579272,        0.7161450767, -1.1462,  0.4980, -0.2100,-57.3730, 11.5814,  3.9673
        0.7165010356,        0.7187900924, -1.1462,  0.4980, -0.2100,-65.1855, 11.7493, 13.4125
        0.7191489124,        0.7214389228, -1.1462,  0.4980, -0.2100,-64.8193, 11.7493, 13.4125
        0.7217820071,        0.7240760707, -1.1462,  0.4980, -0.2100,-64.8193, 11.7493, 13.4125
        0.7244339370,        0.7267311000, -1.1462,  0.4980, -0.2100,-64.8193, 11.7493, 13.4125
        0.7270880126,        0.7293839835, -1.1462,  0.4851, -0.2393,-64.8193, 11.7493, 24.3378
        0.7297430419,        0.7320421123, -1.0999,  0.4851, -0.2393,-69.4885, 11.7188, 24.3378
        0.7324040317,        0.7346909427, -1.0999,  0.4851, -0.2393,-69.4885, 11.7188, 24.3378
        0.7350490474,        0.7373400115, -1.0999,  0.4851, -0.2393,-69.4885, 11.7188, 24.3378
        0.7377000236,        0.7399940871, -1.0999,  0.4851, -0.2393,-69.4885, 11.7188, 36.6058
        0.7403529071,        0.7427330398, -1.0999,  0.4851, -0.2393,-69.6259, 12.0239, 36.6058
        0.7430920982,        0.7453871154, -1.0999,  0.4851, -0.2393,-69.6259, 12.0239, 36.6058
        0.7457459354,        0.7480340385, -1.0999,  0.4851, -0.2393,-69.6259, 12.0239, 36.6058
        0.7483930968,        0.7506840610, -1.0657,  0.4126, -0.2427,-69.6259, 12.0239, 48.3246
        0.7510428809,        0.7534249210, -1.0657,  0.4126, -0.2427,-65.5365, 11.7798, 49.3469
        0.7537839793,        0.7560730361, -1.0657,  0.4126, -0.2427,-65.5365, 11.7798, 49.3469
        0.7564320945,        0.7587199592, -1.0657,  0.4126, -0.2427,-65.5365, 11.7798, 49.3469
        0.7590771102,        0.7613699817, -1.0657,  0.4126, -0.2427,-65.5365, 11.7798, 49.3469
        0.7617669486,        0.7640569591, -1.0657,  0.4126, -0.2427,-57.8918, 11.9171, 63.3087
        0.7644169711,        0.7667079353, -1.0657,  0.4126, -0.2427,-57.8918, 11.9171, 63.3087
        0.7670650863,        0.7693589114, -1.0657,  0.4126, -0.2595,-57.8918, 11.9171, 63.3087
        0.7697170161,        0.7720148944, -1.0544,  0.3784, -0.2595,-57.8918, 11.9171, 63.3087
        0.7723749065,        0.7746630096, -1.0544,  0.3784, -0.2595,-48.5382, 12.4512, 76.9043
        0.7750220679,        0.7773158931, -1.0544,  0.3784, -0.2595,-48.5382, 12.4512, 76.9043
        0.7776739978,        0.7799690150, -1.0544,  0.3784, -0.2595,-48.5382, 12.4512, 76.9043
        0.7803280734,        0.7828190707, -1.0544,  0.3784, -0.2595,-48.5382, 12.4512, 76.9043
        0.7831778907,        0.7854679012, -1.0544,  0.3784, -0.2595,-38.9099, 12.7411, 89.2792
        0.7858269595,        0.7881169700, -1.0544,  0.3784, -0.2595,-38.9099, 12.7411, 89.2792
        0.7884760284,        0.7907669925, -1.0476,  0.2981, -0.2751,-38.9099, 12.7411, 89.2792
        0.7911260509,        0.7934239291, -1.0476,  0.2981, -0.2751,-38.9099, 12.7411, 89.2792
        0.7937839412,        0.7960749053, -1.0476,  0.2981, -0.2751,-30.7007, 13.3209,101.1963
        0.7964349174,        0.7987258815, -1.0476,  0.2981, -0.2751,-30.7007, 13.3209,101.1963
        0.7990830325,        0.8014939212, -1.0476,  0.2981, -0.2751,-30.7007, 13.3209,101.1963
        0.8018529796,        0.8041470431, -1.0476,  0.2981, -0.2751,-30.7007, 13.3209,101.1963
        0.8045049094,        0.8067949199, -1.0476,  0.2981, -0.2751,-24.4293, 14.2517,112.1063
        0.8071549319,        0.8095350646, -1.0476,  0.2981, -0.2886,-24.4293, 14.2517,112.1063
        0.8098960303,        0.8122148894, -1.0244,  0.2812, -0.2886,-24.4293, 14.2517,112.1063
        0.8125739478,        0.8148739719, -1.0244,  0.2812, -0.2886,-24.4293, 14.2517,112.1063
        0.8152330302,        0.8175349616, -1.0244,  0.2812, -0.2886,-21.1792, 15.3351,121.9635
        0.8178930663,        0.8201849841, -1.0244,  0.2812, -0.2886,-21.1792, 15.3351,121.9635
        0.8205418967,        0.8228469276, -1.0244,  0.2812, -0.2886,-21.1792, 15.3351,121.9635
        0.8232069396,        0.8255000495, -1.0244,  0.2812, -0.2886,-21.1792, 15.3351,121.9635
        0.8259730720,        0.8282609367, -1.0244,  0.2812, -0.2886,-19.9127, 16.6473,130.6152
        0.8286199950,        0.8309181117, -1.0398,  0.2197, -0.2793,-19.9127, 16.6473,130.6152
        0.8312759780,        0.8336520576, -1.0398,  0.2197, -0.2793,-19.9127, 16.6473,130.6152
        0.8340099239,        0.8363020801, -1.0398,  0.2197, -0.2793,-19.9127, 16.6473,130.6152
        0.8366609000,        0.8389530563, -1.0398,  0.2197, -0.2793,-19.2719, 18.1122,138.1073
        0.8393140220,        0.8415980720, -1.0398,  0.2197, -0.2793,-19.2719, 18.1122,138.1073
        0.8419580840,        0.8442440414, -1.0398,  0.2197, -0.2793,-19.2719, 18.1122,138.1073
        0.8446019077,        0.8468990707, -1.0398,  0.2197, -0.2793,-19.2719, 18.1122,138.1073
        0.8472578906,        0.8495529079, -1.0398,  0.1572, -0.2893,-19.2719, 19.6991,144.1040
        0.8499110126,        0.8522959136, -1.0908,  0.1580, -0.2893,-19.4244, 19.6991,144.1040
        0.8526540183,        0.8549430751, -1.0908,  0.1580, -0.2893,-19.4244, 19.6991,144.1040
        0.8553009414,        0.8575919055, -1.0908,  0.1580, -0.2893,-19.4244, 19.6991,144.1040
        0.8579519176,        0.8602469348, -1.0908,  0.1580, -0.2893,-19.4244, 19.6991,148.6969
        0.8606040858,        0.8630519294, -1.0908,  0.1580, -0.2893,-21.4691, 20.3552,148.6969
        0.8634100341,        0.8657069587, -1.0908,  0.1580, -0.2893,-21.4691, 20.3552,148.6969
        0.8660650634,        0.8683579349, -1.0908,  0.1580, -0.2893,-21.4691, 20.3552,148.6969
        0.8687179469,        0.8710101031, -1.0864, -0.0383, -0.2849,-21.4691, 20.3552,151.0620
        0.8713701152,        0.8737080478, -1.0864, -0.0383, -0.2849,-24.7650, 20.5231,151.0620
        0.8740690135,        0.8763599776, -1.0864, -0.0383, -0.2849,-24.7650, 20.5231,151.0620
        0.8767180823,        0.8790109538, -1.0864, -0.0383, -0.2849,-24.7650, 20.5231,151.0620
        0.8793700122,        0.8816700362, -1.0864, -0.0383, -0.2849,-24.7650, 20.5231,151.2909
        0.8820820235,        0.8843689346, -1.0864, -0.0383, -0.2849,-28.4576, 20.7062,151.2909
        0.8847279929,        0.8871639156, -1.0864, -0.0383, -0.2849,-28.4576, 20.7062,151.2909
        0.8875260734,        0.8898210906, -1.0864, -0.2883, -0.3486,-28.4576, 20.7062,151.2909
        0.8901799106,        0.8926680469, -1.0449, -0.2598, -0.3486,-28.4576, 20.7062,151.1230
        0.8930271053,        0.8953159236, -1.0449, -0.2598, -0.3486,-33.5083, 23.1781,151.1230
        0.8956749820,        0.8980839633, -1.0449, -0.2598, -0.3486,-33.5083, 23.1781,151.1230
        0.8984449290,        0.9007649802, -1.0449, -0.2598, -0.3486,-33.5083, 23.1781,151.1230
        0.9022429370,        0.9058130168, -1.0449, -0.2598, -0.3486,-40.4205, 25.8789,152.9541
        0.9061758899,        0.9084630393, -1.0449, -0.2598, -0.3486,-40.4205, 25.8789,152.9541
        0.9088220977,        0.9111149692, -1.0762, -0.1208, -0.3057,-40.4205, 25.8789,152.9541
        0.9114759349,        0.9137750053, -1.0762, -0.1208, -0.3057,-40.4205, 25.8789,152.9541
        0.9141369247,        0.9164269351, -1.0762, -0.1208, -0.3057,-47.8210, 26.8860,154.2358
        0.9167879008,        0.9190841102, -1.0762, -0.1208, -0.3057,-47.8210, 26.8860,154.2358
        0.9194419765,        0.9217770480, -1.0762, -0.1208, -0.3057,-47.8210, 26.8860,154.2358
        0.9221380138,        0.9244330310, -1.0762, -0.1208, -0.3057,-47.8210, 26.8860,154.2358
        0.9247930431,        0.9270840072, -1.0762, -0.1208, -0.3057,-51.6510, 26.2451,153.5797
        0.9274449729,        0.9297409438, -1.0762, -0.1208, -0.1409,-51.6510, 26.2451,153.5797
        0.9301009559,        0.9324028873, -1.1780, -0.3328, -0.1409,-51.6510, 26.2451,153.5797
        0.9327619456,        0.9350579166, -1.1780, -0.3328, -0.1409,-51.6510, 26.2451,153.5797
        0.9354169749,        0.9377010249, -1.1780, -0.3328, -0.1409,-47.2565, 22.7966,152.9236
        0.9380569839,        0.9403479480, -1.1780, -0.3328, -0.1409,-47.2565, 22.7966,152.9236
        0.9407060527,        0.9430849933, -1.1780, -0.3328, -0.1409,-47.2565, 22.7966,152.9236
        0.9435599231,        0.9458520793, -1.1780, -0.3328, -0.1409,-47.2565, 22.7966,152.9236
        0.9462120914,        0.9485040092, -1.1780, -0.3328, -0.1409,-38.7115, 17.4255,154.0985
        0.9488630675,        0.9511549853, -1.2932, -0.5493, -0.0874,-38.7115, 17.4255,154.0985
        0.9515130901,        0.9539859676, -1.2932, -0.5493, -0.0874,-38.7115, 17.4255,154.0985
        0.9543478870,        0.9566350364, -1.2932, -0.5493, -0.0874,-38.7115, 17.4255,154.0985
        0.9569950484,        0.9592810058, -1.2932, -0.5493, -0.0874,-30.7465, 13.9923,153.2135
        0.9596429252,        0.9620769405, -1.2932, -0.5493, -0.0874,-30.7465, 13.9923,153.2135
        0.9624369525,        0.9647310161, -1.2932, -0.5493, -0.0874,-30.7465, 13.9923,153.2135
        0.9650910281,        0.9673779391, -1.2932, -0.5493, -0.0874,-30.7465, 13.9923,153.2135
        0.9677360439,        0.9700289153, -1.2932, -0.5493, -0.2576,-26.5045, 12.9547,148.0255
        0.9703879737,        0.9727390193, -1.1748, -0.8718, -0.2576,-26.5045, 12.9547,148.0255
        0.9730990314,        0.9753930949, -1.1748, -0.8718, -0.2576,-26.5045, 12.9547,148.0255
        0.9757509612,        0.9780440711, -1.1748, -0.8718, -0.2576,-26.5045, 12.9547,148.0255
        0.9784009837,        0.9806919479, -1.1748, -0.8718, -0.2576,-29.4495, 15.3656,134.8114
        0.9810510062,        0.9834049129, -1.1748, -0.8718, -0.2576,-29.4495, 15.3656,134.8114
        0.9837639712,        0.9860520744, -1.1748, -0.8718, -0.2576,-29.4495, 15.3656,134.8114
        0.9864130401,        0.9888420486, -1.1748, -0.8718, -0.2576,-29.4495, 15.3656,134.8114
        0.9892030143,        0.9914939784, -0.9836, -1.4121, -0.3193,-40.4968, 22.5525,112.4878
        0.9919329070,        0.9942291164, -0.9836, -1.4121, -0.3193,-40.4968, 22.5525,112.4878
        0.9945869826,        0.9968800925, -0.9836, -1.4121, -0.3193,-40.4968, 22.5525,112.4878
        1.0001089954,        1.0024741077, -0.9836, -1.4121, -0.3193,-49.8657, 29.1290, 84.6405
        1.0028369807,        1.0051288985, -0.9836, -1.4121, -0.3193,-49.8657, 29.1290, 84.6405
        1.0054850959,        1.0077751064, -0.9836, -1.4121, -0.3193,-49.8657, 29.1290, 84.6405
        1.0081310653,        1.0104220294, -0.9836, -1.5164, -0.0476,-49.8657, 29.1290, 84.6405
        1.0107798957,        1.0131369018, -1.2642, -1.5164, -0.0476,-49.8657, 26.3367, 49.7131
        1.0134930991,        1.0157819175, -1.2642, -1.5164, -0.0476,-48.4924, 26.3367, 49.7131
        1.0161419295,        1.0184319400, -1.2642, -1.5164, -0.0476,-48.4924, 26.3367, 49.7131
        1.0187890910,        1.0210791015, -1.2642, -1.5164, -0.0476,-48.4924, 26.3367, 49.7131
        1.0214350604,        1.0237419986, -1.2642, -1.5164, -0.0476,-48.4924, 18.5242,  5.6000
        1.0240970039,        1.0263879680, -1.2642, -1.5164, -0.0476,-45.4407, 19.3329,  5.6000
        1.0267420196,        1.0290339374, -1.2642, -1.5164, -0.0476,-45.4407, 19.3329,  5.6000
        1.0293879890,        1.0316849136, -1.4216, -1.6685, -0.1277,-45.4407, 19.3329,  5.6000
        1.0321109676,        1.0343981170, -1.4216, -1.6685, -0.1277,-45.4407, 19.3329,-38.0402
        1.0347569369,        1.0370419406, -1.4216, -1.6685, -0.1277,-41.1072, 14.0991,-38.0402
        1.0373978995,        1.0396991157, -1.4216, -1.6685, -0.1277,-41.1072, 14.0991,-38.0402
        1.0400550746,        1.0424859904, -1.4216, -1.6685, -0.1277,-41.1072, 14.0991,-38.0402
        1.0428419494,        1.0451391124, -1.4216, -1.6685, -0.1277,-41.1072, 14.0991,-69.2902
        1.0454950713,        1.0477829360, -1.4216, -1.6685, -0.1277,-30.0751,  8.9874,-67.8406
        1.0481379413,        1.0504260444, -1.4216,  0.4565, -0.2068,-30.0751,  8.9874,-67.8406
        1.0507820033,        1.0532210254, -1.5312,  0.4795, -0.2068,-30.0751,  8.9874,-67.8406
        1.0535760307,        1.0558679485, -1.5312,  0.4795, -0.2068,-30.0751,  8.9874,-67.8406
        1.0562229537,        1.0585179710, -1.5312,  0.4795, -0.2068,-24.8413, -0.3510,-63.5834
        1.0588748836,        1.0611710929, -1.5312,  0.4795, -0.2068,-24.8413, -0.3510,-63.5834
        1.0616410159,        1.0639450931, -1.5312,  0.4795, -0.2068,-24.8413, -0.3510,-63.5834
        1.0643000983,        1.0665939235, -1.5312,  0.4795, -0.2068,-24.8413, -0.3510,-63.5834
        1.0669498824,        1.0692410850, -1.5312,  0.4795, -0.2068, -4.8523,  4.3182,-18.5394
        1.0695910834,        1.0719099425, -1.3003,  2.7700, -0.3015, -4.8523,  4.3182,-18.5394
        1.0722771072,        1.0745818996, -1.3003,  2.7700, -0.3015, -4.8523,  4.3182,-18.5394
        1.0749318980,        1.0772231006, -1.3003,  2.7700, -0.3015, -4.8523,  4.3182,-18.5394
        1.0775740527,        1.0798609637, -1.3003,  2.7700, -0.3015, 22.2168, 11.3220,-17.4255
        1.0802159690,        1.0825651073, -1.3003,  2.7700, -0.3015, 22.2168, 11.3220,-17.4255
        1.0829220199,        1.0852089309, -1.3003,  2.7700, -0.3015, 22.2168, 11.3220,-17.4255
        1.0855639362,        1.0878579997, -1.3003,  2.7700, -0.3015, 22.2168, 11.3220,-17.4255
        1.0882139587,        1.0905380630, -1.3003,  2.7700,  0.3635,-26.0620, -5.3558,-81.1310
        1.0908940219,        1.0932999038, -1.9387, -0.5425,  0.3635,-26.0620, -5.3558,-81.1310
        1.0936580085,        1.0959520721, -1.9387, -0.5425,  0.3635,-26.0620, -5.3558,-81.1310
        1.0963058852,        1.1028991126, -1.9387, -0.5425,  0.3635,-27.1912,-14.6027,-91.0797
        1.1032760524,        1.1067901038, -1.9387, -0.5425,  0.3635,-27.1912,-14.6027,-91.0797
        1.1071539306,        1.1101410770, -1.9387, -0.5425,  0.3635,-27.1912,-14.6027,-91.0797
        1.1105029964,        1.1127930068, -1.3979,  0.1968, -0.2446,  4.7607,  4.1351,-89.5081
        1.1131470584,        1.1154408836, -1.3979,  0.1968, -0.2446,  4.7607,  4.1351,-89.5081
        1.1157908820,        1.1180799388, -1.3979,  0.1968, -0.2446,  4.7607,  4.1351,-89.5081
        1.1184299373,        1.1207189941, -1.3979,  0.1968, -0.2446,  4.7607,  4.1351,-89.5081
        1.1210720920,        1.1233730697, -1.3979,  0.1968, -0.2446, -3.2501, 19.9280,-104.9500
        1.1237290286,        1.1260199927, -1.3979,  0.1968, -0.2446, -3.2501, 19.9280,-104.9500
        1.1263759517,        1.1286681079, -1.3979,  0.1968, -0.2446, -3.2501, 19.9280,-104.9500
        1.1290231132,        1.1313081168, -1.3979,  0.0552, -0.4976, -3.2501, 19.9280,-104.9500
        1.1316619300,        1.1340530299, -1.4148,  0.0552, -0.4976,-26.9318, 23.0255,-115.5090
        1.1344108962,        1.1367049598, -1.4148,  0.0552, -0.4976,-26.9318, 23.0255,-115.5090
        1.1370630645,        1.1393559360, -1.4148,  0.0552, -0.4976,-26.9318, 23.0255,-115.5090
        1.1397159480,        1.1420359992, -1.4148,  0.0552, -0.4976,-26.9318, 23.0255,-115.5090
        1.1423960113,        1.1446950816, -1.4148,  0.0552, -0.4976,-43.1671, 18.0206,-117.7063
        1.1450539016,        1.1473451041, -1.4148,  0.0552, -0.4976,-43.1671, 18.0206,-117.7063
        1.1477029704,        1.1499989413, -1.4148,  0.0552, -0.4976,-43.1671, 18.0206,-117.7063
        1.1503570460,        1.1526899718, -1.0515, -0.2217, -0.3040,-43.1671, 18.0206,-117.7063
        1.1530490302,        1.1553409480, -1.0515, -0.2217, -0.3040,-35.7819,  9.8572,-113.7848
        1.1556959533,        1.1579940700, -1.0515, -0.2217, -0.3040,-35.7819,  9.8572,-113.7848
        1.1583509826,        1.1606419467, -1.0515, -0.2217, -0.3040,-35.7819,  9.8572,-113.7848
        1.1609979057,        1.1634478950, -1.0515, -0.2217, -0.3040,-35.7819,  9.8572,-113.7848
        1.1638050460,        1.1661019706, -1.0515, -0.2217, -0.3040,-10.5133, 10.4980,-102.0813
        1.1664588832,        1.1687519931, -1.0515, -0.2217, -0.3040,-10.5133, 10.4980,-102.0813
        1.1691089057,        1.1714039230, -1.0515, -0.1204, -0.3638,-10.5133, 10.4980,-102.0813
        1.1717889690,        1.1740808868, -1.0352, -0.1204, -0.3638,-10.5133, 10.4980,-102.0813
        1.1744430446,        1.1767290019, -1.0352, -0.1204, -0.3638, 12.9242, 11.8866,-89.5691
        1.1770880603,        1.1793830775, -1.0352, -0.1204, -0.3638, 13.9618, 11.8866,-89.5691
        1.1798539542,        1.1821821117, -1.0352, -0.1204, -0.3638, 13.9618, 11.8866,-89.5691
        1.1825399779,        1.1848268890, -1.0352, -0.1204, -0.3638, 13.9618, 11.8866,-89.5691
        1.1851859473,        1.1874809646, -1.0352, -0.1204, -0.3638, 13.9618,  9.9182,-83.1451
        1.1878381156,        1.1901309871, -1.0352, -0.1204, -0.3638, 24.9634,  9.9182,-83.1451
        1.1904900455,        1.1927919768, -1.1057,  0.0427, -0.3894, 24.9634,  9.9182,-83.1451
        1.1931488895,        1.1956000709, -1.1057,  0.0427, -0.3894, 24.9634,  9.9182,-83.1451
        1.1959560298,        1.1982479476, -1.1057,  0.0427, -0.3894, 24.9634,  9.9182,-79.6051
        1.1986029529,        1.2008960628, -1.1057,  0.0427, -0.3894, 24.9634,  7.8278,-79.6051
        1.2012510680,        1.2036970042, -1.1057,  0.0427, -0.3894, 24.9634,  7.8278,-79.6051
        1.2040539169,        1.2063448810, -1.1057,  0.0427, -0.3894, 24.9634,  7.8278,-79.6051
        1.2067020320,        1.2112889671, -1.1057,  0.0427, -0.2300, 21.7896,  6.1951,-77.4384
        1.2116489791,        1.2139459037, -1.1462,  0.0325, -0.2300, 21.7896,  6.1951,-77.4384
        1.2143030547,        1.2165930652, -1.1462,  0.0325, -0.2300, 21.7896,  6.1951,-77.4384
        1.2169499778,        1.2192380809, -1.1462,  0.0325, -0.2300, 21.7896,  6.1951,-77.4384
        1.2195940398,        1.2218869113, -1.1462,  0.0325, -0.2300, 21.4539,  5.0049,-74.1119
        1.2222450160,        1.2245359801, -1.1462,  0.0325, -0.2300, 21.4539,  5.0049,-74.1119
        1.2248919391,        1.2271829032, -1.1462,  0.0325, -0.2300, 21.4539,  5.0049,-74.1119
        1.2275369548,        1.2298319720, -1.1462,  0.0325, -0.2300, 21.4539,  5.0049,-74.1119
        1.2301879310,        1.2325220489, -1.1885,  0.0405, -0.3022, 27.4658,  5.2643,-68.9850
        1.2328789615,        1.2351739787, -1.1885,  0.0405, -0.3022, 27.4658,  5.2643,-68.9850
        1.2355289840,        1.2378170871, -1.1885,  0.0405, -0.3022, 27.4658,  5.2643,-68.9850
        1.2381720924,        1.2404640102, -1.1885,  0.0405, -0.3022, 27.4658,  5.2643,-68.9850
        1.2408190154,        1.2431779288, -1.1885,  0.0405, -0.3022, 34.0424,  4.6539,-64.1937
        1.2435338878,        1.2458229446, -1.1885,  0.0405, -0.3022, 34.0424,  4.6539,-64.1937
        1.2461779498,        1.2484670066, -1.1885,  0.0405, -0.3022, 34.0424,  4.6539,-64.1937
        1.2488229655,        1.2511170291, -1.1885,  0.0405, -0.3357, 34.0424,  4.6539,-64.1937
        1.2514720344,        1.2538330936, -1.1331,  0.2166, -0.3357, 37.8723,  3.4637,-62.2864
        1.2541880988,        1.2564831161, -1.1331,  0.2166, -0.3357, 37.8723,  3.4637,-62.2864
        1.2568359756,        1.2591269397, -1.1331,  0.2166, -0.3357, 37.8723,  3.4637,-62.2864
        1.2594800376,        1.2619159602, -1.1331,  0.2166, -0.3357, 37.8723,  3.4637,-62.2864
        1.2622709655,        1.2645659827, -1.1331,  0.2166, -0.3357, 35.1715,  2.1210,-62.1796
        1.2649240874,        1.2672150516, -1.1331,  0.2166, -0.3357, 35.1715,  2.1210,-62.1796
        1.2675710105,        1.2698629283, -1.1331,  0.2166, -0.3357, 35.1715,  2.1210,-62.1796
        1.2702179336,        1.2725589656, -1.1392,  0.0273, -0.3481, 35.1715,  2.1210,-62.1796
        1.2729139709,        1.2752058887, -1.1392,  0.0273, -0.3481, 34.4086,  0.1373,-61.4014
        1.2755649470,        1.2778609180, -1.1392,  0.0273, -0.3481, 34.4086,  0.1373,-61.4014
        1.2782180690,        1.2805080794, -1.1392,  0.0273, -0.3481, 34.4086,  0.1373,-61.4014
        1.2808649921,        1.2831669234, -1.1392,  0.0273, -0.3481, 34.4086,  0.1373,-61.4014
        1.2835240745,        1.2858240985, -1.1392,  0.0273, -0.3481, 38.3148, -1.0681,-61.0809
        1.2861800574,        1.2884710216, -1.1392,  0.0273, -0.3481, 35.5377, -1.0681,-61.0809
        1.2888250732,        1.2911210441, -1.1392,  0.0273, -0.3755, 35.5377, -1.0681,-61.0809
        1.2914760493,        1.2938919448, -1.1689,  0.0720, -0.3755, 35.5377, -1.0681,-61.0809
        1.2942490958,        1.2966230296, -1.1689,  0.0720, -0.3755, 39.4440, -2.5940,-59.3719
        1.2971198939,        1.2994211101, -1.1689,  0.0720, -0.3755, 40.0848, -2.5940,-59.3719
        1.2997780227,        1.3022160911, -1.1689,  0.0720, -0.3755, 40.0848, -2.5940,-59.3719
        1.3025720500,        1.3048670673, -1.1689,  0.0720, -0.3755, 40.0848, -2.5940,-59.3719
        1.3052230262,        1.3088670158, -1.1689,  0.0720, -0.3755, 40.0848, -3.1891,-58.1512
        1.3092449092,        1.3115370654, -1.1689, -0.0530, -0.3887, 42.1600, -3.1891,-58.1512
        1.3118930244,        1.3141899490, -1.1919, -0.0217, -0.3887, 42.1600, -3.1891,-58.1512
        1.3145480537,        1.3168359183, -1.1919, -0.0217, -0.3887, 42.1600, -3.1891,-58.1512
        1.3171940231,        1.3194830798, -1.1919, -0.0217, -0.3887, 41.2903, -4.8981,-56.8848
        1.3198390388,        1.3221829318, -1.1919, -0.0217, -0.3887, 41.2903, -4.8981,-56.8848
        1.3225369834,        1.3248279475, -1.1919, -0.0217, -0.3887, 41.2903, -4.8981,-56.8848
        1.3251810455,        1.3274760627, -1.1919, -0.0217, -0.3887, 41.2903, -4.8981,-56.8848
        1.3278289222,        1.3301260852, -1.1919, -0.0217, -0.3887, 44.4031, -6.5613,-53.7567
        1.3304829978,        1.3328109168, -1.1477, -0.1216, -0.3579, 44.4031, -6.5613,-53.7567
        1.3331690215,        1.3354668998, -1.1477, -0.1216, -0.3579, 44.4031, -6.5613,-53.7567
        1.3358219051,        1.3381100082, -1.1477, -0.1216, -0.3579, 44.4031, -6.5613,-53.7567
        1.3384650134,        1.3407578849, -1.1477, -0.1216, -0.3579, 52.8717, -6.1188,-48.4009
        1.3411128902,        1.3434150600, -1.1477, -0.1216, -0.3579, 52.8717, -6.1188,-48.4009
        1.3437700652,        1.3460629367, -1.1477, -0.1216, -0.3579, 52.8717, -6.1188,-48.4009
        1.3464188956,        1.3487260722, -1.1477, -0.1216, -0.3579, 52.8717, -6.1188,-48.4009
        1.3490829848,        1.3514619254, -1.1477, -0.1216, -0.3337, 56.7322, -6.4240,-42.6178
        1.3519049071,        1.3541970634, -1.1177, -0.1245, -0.3337, 56.7322, -6.4240,-42.6178
        1.3545530223,        1.3568458938, -1.1177, -0.1245, -0.3337, 56.7322, -6.4240,-42.6178
        1.3572008990,        1.3594930553, -1.1177, -0.1245, -0.3337, 56.7322, -6.4240,-42.6178
        1.3598471069,        1.3622990035, -1.1177, -0.1245, -0.3337, 58.7311, -5.9052,-40.7867
        1.3626549625,        1.3649480724, -1.1177, -0.1245, -0.3337, 58.7311, -5.9052,-40.7867
        1.3653059386,        1.3675969028, -1.1177, -0.1245, -0.3337, 58.7311, -5.9052,-40.7867
        1.3679550075,        1.3702400111, -1.1177, -0.1245, -0.3337, 58.7311, -5.9052,-40.7867
        1.3705940627,        1.3729250812, -1.1729, -0.0283, -0.2129, 54.8248, -7.2174,-37.3535
        1.3732810401,        1.3755720042, -1.1729, -0.0283, -0.2129, 57.2662, -7.2174,-37.3535
        1.3759270095,        1.3782220267, -1.1729, -0.0283, -0.2129, 57.2662, -7.2174,-37.3535
        1.3785779857,        1.3808670425, -1.1729, -0.0283, -0.2129, 57.2662, -7.2174,-37.3535
        1.3812230014,        1.3835249328, -1.1729, -0.0283, -0.2129, 57.2662,-11.1237,-37.3535
        1.3838839912,        1.3861720943, -1.1729, -0.0283, -0.2129, 51.1932, -8.3618,-37.3535
        1.3865290069,        1.3888171100, -1.1729, -0.0283, -0.2129, 51.1932, -8.3618,-37.3535
        1.3891721152,        1.3914609336, -1.1729, -0.0283, -0.2129, 51.1932, -8.3618,-37.3535
        1.3918800735,        1.3941710376, -1.1292, -0.0657, -0.1917, 51.1932, -8.3618,-37.4756
        1.3945289039,        1.3969409846, -1.1292, -0.0657, -0.1917, 45.2118, -8.3771,-37.4756
        1.3972978973,        1.3995929145, -1.1292, -0.0657, -0.1917, 45.2118, -8.3771,-37.4756
        1.3999491119,        1.4023220920, -1.1292, -0.0657, -0.1917, 45.2118, -8.3771,-37.4756
        1.4026880645,        1.4050760650, -1.1292, -0.0657, -0.1917, 45.2118, -8.3771,-37.7197
        1.4054379844,        1.4079809570, -1.1292, -0.0657, -0.1917, 39.8865, -8.8043,-37.7197
        1.4083569431,        1.4110980415, -1.1292, -0.0657, -0.1917, 39.8865, -8.8043,-37.7197
        1.4115689181,        1.4139418983, -1.0903, -0.1091, -0.2556, 39.8865, -8.8043,-37.7197
        1.4142990493,        1.4165890598, -1.0903, -0.1091, -0.2556, 35.9802, -8.9264,-37.4908
        1.4169440650,        1.4192390823, -1.0903, -0.1091, -0.2556, 36.7279, -8.9264,-37.4908
        1.4195950412,        1.4218910121, -1.0903, -0.1091, -0.2556, 36.7279, -8.9264,-37.4908
        1.4222469711,        1.4245338821, -1.0903, -0.1091, -0.2556, 36.7279, -8.9264,-37.4908
        1.4248900794,        1.4271879577, -1.0903, -0.1091, -0.2556, 36.7279, -8.9264,-37.8418
        1.4275439166,        1.4298360728, -1.0903, -0.1091, -0.2556, 35.4309, -8.6060,-37.8418
        1.4301929855,        1.4325440311, -1.0278, -0.0872, -0.3118, 35.4309, -8.6060,-37.8418
        1.4328999900,        1.4351969146, -1.0317, -0.0872, -0.3118, 35.4309, -8.6060,-37.8418
        1.4355531120,        1.4378409766, -1.0317, -0.0872, -0.3118, 35.4309, -8.6060,-38.1012
        1.4381978892,        1.4404960059, -1.0317, -0.0872, -0.3118, 33.9661, -8.4991,-38.1012
        1.4408519649,        1.4431429290, -1.0317, -0.0872, -0.3118, 33.9661, -8.4991,-38.1012
        1.4435000800,        1.4457919978, -1.0317, -0.0872, -0.3118, 33.9661, -8.4991,-38.1012
        1.4461489104,        1.4484479808, -1.0317, -0.0872, -0.3118, 33.9661, -8.4991,-42.0074
        1.4488039397,        1.4510949039, -1.0317, -0.0872, -0.3118, 30.3802, -8.4076,-39.2456
        1.4514511012,        1.4538441085, -0.9971, -0.0845, -0.3323, 30.3802, -8.4076,-39.2456
        1.4542019748,        1.4565060519, -0.9971, -0.0845, -0.3323, 30.3802, -8.4076,-39.2456
        1.4568639182,        1.4591589355, -0.9971, -0.0845, -0.3323, 30.3802, -8.4076,-39.2456
        1.4595179938,        1.4619288825, -0.9971, -0.0845, -0.3323, 26.3367, -8.1024,-41.4886
        1.4622869872,        1.4645789050, -0.9971, -0.0845, -0.3323, 26.3367, -8.1024,-41.4886
        1.4649370097,        1.4672310733, -0.9971, -0.0845, -0.3323, 26.3367, -8.1024,-41.4886
        1.4675889396,        1.4698839568, -0.9971, -0.0845, -0.3323, 26.3367, -8.1024,-41.4886
        1.4702399158,        1.4725990676, -0.9971, -0.1296, -0.2871, 23.4222, -7.9193,-44.0521
        1.4729559802,        1.4752469443, -1.0107, -0.1296, -0.2871, 23.4222, -7.9193,-44.0521
        1.4756040954,        1.4778960132, -1.0107, -0.1296, -0.2871, 23.4222, -7.9193,-44.0521
        1.4782500648,        1.4805410289, -1.0107, -0.1296, -0.2871, 23.4222, -7.9193,-44.0521
        1.4808938884,        1.4831989192, -1.0107, -0.1296, -0.2871, 21.4844, -8.1787,-45.6238
        1.4835529708,        1.4858498954, -1.0107, -0.1296, -0.2871, 21.4844, -8.1787,-45.6238
        1.4862049007,        1.4884930038, -1.0107, -0.1296, -0.2871, 21.4844, -8.1787,-45.6238
        1.4888470554,        1.4911430263, -1.0107, -0.1296, -0.2871, 21.4844, -8.1787,-45.6238
        1.4914999389,        1.4937930488, -1.0427, -0.1887, -0.2473, 21.0724, -8.5144,-46.7682
        1.4941499614,        1.4964390182, -1.0427, -0.1887, -0.2473, 21.0724, -8.5144,-46.7682
        1.4967930698,        1.4992509269, -1.0427, -0.1887, -0.2473, 21.0724, -8.5144,-46.7682
        1.4996059322,        1.5020881080, -1.0427, -0.1887, -0.2473, 21.0724, -8.5144,-46.7682
        1.5024440669,        1.5047400378, -1.0427, -0.1887, -0.2473, 22.9492, -8.6365,-48.1415
        1.5050979041,        1.5073810004, -1.0427, -0.1887, -0.2473, 22.9492, -8.6365,-48.1415
        1.5096989059,        1.5127799892, -1.0427, -0.1887, -0.3098, 22.9492, -8.6365,-48.1415
        1.5131380939,        1.5157590293, -1.0586, -0.1575, -0.2625, 25.4211, -9.6436,-48.9655
        1.5161199950,        1.5184169196, -1.0586, -0.1575, -0.2625, 25.4211, -9.6436,-48.9655
        1.5187750243,        1.5210628890, -1.0586, -0.1575, -0.2625, 25.4211, -9.6436,-48.9655
        1.5214178943,        1.5237179183, -1.0586, -0.1575, -0.2625, 25.4211, -9.6436,-48.9655
        1.5240741157,        1.5263710403, -1.0586, -0.1575, -0.2625, 26.0773, -9.5978,-50.8728
        1.5267250919,        1.5290151023, -1.0586, -0.1575, -0.2625, 26.0773, -9.5978,-50.8728
        1.5294878863,        1.5318138980, -1.0586, -0.1575, -0.2625, 26.0773, -9.5978,-50.8728
        1.5321700954,        1.5344639205, -1.0908, -0.0234, -0.2798, 26.0773, -9.5978,-50.8728
        1.5348220252,        1.5371199035, -1.0908, -0.0234, -0.2798, 23.3612,-10.2692,-55.1605
        1.5374780082,        1.5397711181, -1.0908, -0.0234, -0.2798, 23.3612,-10.2692,-55.1605
        1.5401280307,        1.5424340152, -1.0908, -0.0234, -0.2798, 23.3612,-10.2692,-55.1605
        1.5427930736,        1.5450849914, -1.0908, -0.0234, -0.2798, 23.3612,-10.2692,-55.1605
        1.5454430961,        1.5477359676, -1.0908, -0.0234, -0.2798, 18.9972,-10.4218,-60.5774
        1.5480940723,        1.5503819369, -1.0908, -0.0234, -0.2798, 18.9972,-10.4218,-60.5774
        1.5507409953,        1.5530419730, -1.0908, -0.0452, -0.2244, 18.9972,-10.4218,-60.5774
        1.5534000777,        1.5556900882, -1.0886, -0.0452, -0.2244, 18.9972,-10.4218,-60.5774
        1.5560470008,        1.5583360576, -1.0886, -0.0452, -0.2244, 15.0909,-10.4675,-67.4744
        1.5586939239,        1.5609898948, -1.0886, -0.0452, -0.2244, 14.8773,-10.4675,-67.4744
        1.5613489532,        1.5637929820, -1.0886, -0.0452, -0.2244, 14.8773,-10.4675,-67.4744
        1.5641510867,        1.5664420509, -1.0886, -0.0452, -0.2244, 14.8773,-10.4675,-67.4744
        1.5667989635,        1.5690930270, -1.0886, -0.0452, -0.2244, 10.9711,-11.7645,-74.3256
        1.5694530391,        1.5718889617, -1.0886, -0.0452, -0.2244, 10.9253,-11.7645,-74.3256
        1.5722489738,        1.5745439910, -1.1953, -0.0652, -0.2317, 10.9253,-11.7645,-74.3256
        1.5749030494,        1.5771890067, -1.1953, -0.0652, -0.2317, 10.9253,-11.7645,-74.3256
        1.5775480651,        1.5798368835, -1.1953, -0.0652, -0.2317, 10.9253,-11.7645,-80.9784
        1.5801949882,        1.5825329208, -1.1953, -0.0652, -0.2317,  9.3384,-13.4888,-80.9784
        1.5828891181,        1.5851779365, -1.1953, -0.0652, -0.2317,  9.3384,-13.4888,-80.9784
        1.5855338954,        1.5878200912, -1.1953, -0.0652, -0.2317,  9.3384,-13.4888,-80.9784
        1.5881760501,        1.5904760741, -1.1953, -0.0652, -0.2317,  9.3384,-13.4888,-86.0443
        1.5908339404,        1.5931558990, -1.3203, -0.0303, -0.2288, 10.6049,-14.9384,-86.0443
        1.5935159110,        1.5958168887, -1.3540, -0.0303, -0.2288, 10.6049,-14.9384,-86.0443
        1.5961740398,        1.5984669112, -1.3540, -0.0303, -0.2288, 10.6049,-14.9384,-86.0443
        1.5988250159,        1.6011250400, -1.3540, -0.0303, -0.2288, 10.6049,-14.9384,-89.9506
        1.6014850520,        1.6039519691, -1.3540, -0.0303, -0.2288, 11.6882,-16.5100,-91.6748
        1.6043119811,        1.6066050910, -1.3540, -0.0303, -0.2288, 11.6882,-16.5100,-91.6748
        1.6089001083,        1.6115730189, -1.3540, -0.0303, -0.2288, 11.6882,-16.5100,-91.6748
        1.6119349384,        1.6148109817, -1.3430,  0.0786, -0.1677, 10.3149,-18.4021,-99.4568
        1.6151729011,        1.6174660110, -1.3430,  0.0786, -0.1677, 10.3149,-18.4021,-99.4568
        1.6178260230,        1.6201150798, -1.3430,  0.0786, -0.1677, 10.3149,-18.4021,-99.4568
        1.6204729461,        1.6228180312, -1.3430,  0.0786, -0.1677, 10.3149,-18.4021,-107.2693
        1.6231758975,        1.6254690074, -1.3430,  0.0786, -0.1677,  7.9498,-20.0806,-108.8715
        1.6258240127,        1.6281140231, -1.3430,  0.0786, -0.1677,  7.9498,-20.0806,-108.8715
        1.6284690284,        1.6307549857, -1.3430,  0.0786, -0.1677,  7.9498,-20.0806,-108.8715
        1.6311109447,        1.6334090614, -1.4680,  0.0691, -0.2002,  7.9498,-20.0806,-108.8715
        1.6337669276,        1.6360540771, -1.4519,  0.0691, -0.2002,  4.2877,-22.2931,-117.5385
        1.6364109897,        1.6386990928, -1.4519,  0.0691, -0.2002,  4.2877,-22.2931,-117.5385
        1.6390540981,        1.6413441085, -1.4519,  0.0691, -0.2002,  4.2877,-22.2931,-117.5385
        1.6416991138,        1.6440310859, -1.4519,  0.0691, -0.2002,  4.2877,-22.2931,-117.5385
        1.6443848991,        1.6466749095, -1.4519,  0.0691, -0.2002,  3.5858,-23.9868,-124.9695
        1.6471469783,        1.6494360351, -1.4519,  0.0691, -0.2002,  3.5858,-23.9868,-124.9695
        1.6497929477,        1.6520860576, -1.4519,  0.0691, -0.2002,  3.5858,-23.9868,-124.9695
        1.6524401092,        1.6547251128, -1.5078,  0.0471, -0.3020,  3.5858,-23.9868,-124.9695
        1.6550789260,        1.6573729896, -1.5078,  0.0471, -0.3020, 10.6659,-23.3002,-130.7068
        1.6577310943,        1.6600230121, -1.5078,  0.0471, -0.3020, 10.6659,-23.3002,-130.7068
        1.6603820705,        1.6628408813, -1.5078,  0.0471, -0.3020, 10.6659,-23.3002,-130.7068
        1.6631999396,        1.6654899501, -1.5078,  0.0471, -0.3020, 10.6659,-23.3002,-130.7068
        1.6658499622,        1.6681390189, -1.5078,  0.0471, -0.3020, 23.2391,-21.5912,-135.1471
        1.6684968852,        1.6707890414, -1.5078,  0.0471, -0.3020, 23.2391,-21.5912,-135.1471
        1.6711469077,        1.6736050033, -1.5703,  0.1514, -0.3337, 23.2391,-21.5912,-135.1471
        1.6739619159,        1.6762578868, -1.6118,  0.1514, -0.3337, 23.2391,-21.5912,-135.1471
        1.6766150378,        1.6789069556, -1.6118,  0.1514, -0.3337, 40.2832,-19.7754,-138.2446
        1.6792650603,        1.6815600776, -1.6118,  0.1514, -0.3337, 40.2832,-19.7754,-138.2446
        1.6819150829,        1.6842101001, -1.6118,  0.1514, -0.3337, 40.2832,-19.7754,-138.2446
        1.6845689201,        1.6868589305, -1.6118,  0.1514, -0.3337, 40.2832,-19.7754,-138.2446
        1.6872170352,        1.6895110988, -1.6118,  0.1514, -0.3337, 63.5529,-18.8751,-139.9231
        1.6898680114,        1.6921921157, -1.6118,  0.1514, -0.3337, 63.5529,-18.8751,-139.9231
        1.6925499820,        1.6948418998, -1.8503,  0.3149, -0.4070, 63.5529,-18.8751,-139.9231
        1.6952000045,        1.6974909686, -1.8503,  0.3149, -0.4070, 63.5529,-18.8751,-139.9231
        1.6978478812,        1.7001340770, -1.8503,  0.3149, -0.4070, 93.5974,-19.3939,-139.8773
        1.7004928970,        1.7027819537, -1.8503,  0.3149, -0.4070, 93.5974,-19.3939,-139.8773
        1.7032969379,        1.7055929088, -1.8503,  0.3149, -0.4070, 93.5974,-19.3939,-139.8773
        1.7059500598,        1.7082410239, -1.8503,  0.3149, -0.4070, 93.5974,-19.3939,-139.8773
        1.7085960292,        1.7108920001, -1.8503,  0.3149, -0.4070,124.8474,-13.5498,-142.9596
        1.7112489127,        1.7136669540, -1.8503,  0.9062, -0.7976,123.5352,-13.5498,-142.9596
        1.7140260123,        1.7163188838, -1.9968,  0.9062, -0.7976,123.5352,-13.5498,-142.9596
        1.7166779422,        1.7217109584, -1.9968,  0.9062, -0.7976,123.5352, -4.3335,-154.8767
        1.7221210384,        1.7244160556, -1.9968,  0.9062, -0.7976,127.6245, -4.3335,-154.8767
        1.7247710609,        1.7270648860, -1.9968,  0.9062, -0.7976,127.6245, -4.3335,-154.8767
        1.7274210834,        1.7297139548, -1.9968,  0.9062, -0.7976,127.6245, -4.3335,-154.8767
        1.7300699138,        1.7323780440, -1.9968,  0.9062, -0.7976,127.6245,  3.4790,-179.1534
        1.7327330493,        1.7350230598, -2.0239,  0.2173, -0.7417, 99.1364,  0.4730,-179.1534
        1.7353799724,        1.7376749896, -2.0239,  0.2173, -0.7417, 99.1364,  0.4730,-179.1534
        1.7380309486,        1.7403219127, -2.0239,  0.2173, -0.7417, 99.1364,  0.4730,-179.1534
        1.7406769180,        1.7430611037, -2.0239,  0.2173, -0.7417, 99.1364,  0.4730,-213.0737
        1.7434170627,        1.7457120799, -2.0239,  0.2173, -0.7417, 53.0243, -0.3967,-213.0737
        1.7460689925,        1.7483590030, -2.0239,  0.2173, -0.7417, 53.0243, -0.3967,-213.0737
        1.7487149619,        1.7510090255, -2.0239,  0.2173, -0.7417, 53.0243, -0.3967,-213.0737
        1.7513649844,        1.7537160300, -2.0239, -0.5842, -0.5303, 53.0243, -0.3967,-228.6987
        1.7540719890,        1.7563619994, -2.0603, -0.5842, -0.5303, 20.0653, -2.2583,-229.4464
        1.7567170047,        1.7590101146, -2.0603, -0.5842, -0.5303, 20.0653, -2.2583,-229.4464
        1.7593639278,        1.7616529845, -2.0603, -0.5842, -0.5303, 20.0653, -2.2583,-229.4464
        1.7622979068,        1.7645910167, -2.0603, -0.5842, -0.5303, 20.0653, -2.2583,-209.9152
        1.7649469756,        1.7672400855, -2.0603, -0.5842, -0.5303, 30.7770, -1.0986,-208.6029
        1.7675938987,        1.7698829555, -2.0603, -0.5842, -0.5303, 30.7770, -1.0986,-208.6029
        1.7702370071,        1.7726819896, -2.0603, -0.5842, -0.5303, 30.7770, -1.0986,-208.6029
        1.7730379485,        1.7753310584, -1.5708, -0.1426, -0.4121, 30.7770, -1.0986,-208.6029
        1.7756879710,        1.7779760741, -1.5708, -0.1426, -0.4121, 56.8542, -0.7477,-176.5747
        1.7783339404,        1.7806260966, -1.5708, -0.1426, -0.4121, 56.8542, -0.7477,-176.5747
        1.7809830093,        1.7833340549, -1.5708, -0.1426, -0.4121, 56.8542, -0.7477,-176.5747
        1.7836900138,        1.7859769248, -1.5708, -0.1426, -0.4121, 56.8542, -0.7477,-176.5747
        1.7863319301,        1.7886290931, -1.5708, -0.1426, -0.4121, 61.3403, -4.5319,-150.6042
        1.7889840984,        1.7912719630, -1.5708, -0.1426, -0.4121, 61.3403, -4.5319,-150.6042
        1.7916269683,        1.7939229392, -1.5708, -0.1638, -0.2314, 61.3403, -4.5319,-150.6042
        1.7942810439,        1.7965660476, -1.3936, -0.1638, -0.2314, 61.3403, -4.5319,-150.6042
        1.7969200992,        1.7992101096, -1.3936, -0.1638, -0.2314, 48.1873,-12.6343,-132.1106
        1.7995660686,        1.8018699073, -1.3936, -0.1638, -0.2314, 48.1873,-12.6343,-132.1106
        1.8022261047,        1.8045180225, -1.3936, -0.1638, -0.2314, 48.1873,-12.6343,-132.1106
        1.8048739814,        1.8073289775, -1.3936, -0.1638, -0.2314, 48.1873,-12.6343,-132.1106
        1.8076880359,        1.8099809074, -1.3936, -0.1638, -0.2314, 40.7562,-16.5558,-108.1848
        1.8103409194,        1.8127370261, -1.3936, -0.1638, -0.2314, 40.7562,-16.5558,-108.1848
        1.8130970382,        1.8153899097, -0.4536, -0.5110, -0.0867, 40.7562,-16.5558,-108.1848
        1.8157489680,        1.8197698974, -0.4536, -0.5110, -0.0867, 40.7562,-12.6495,-81.1157
        1.8201311015,        1.8224280261, -0.4536, -0.5110, -0.0867, 34.4391,-13.5498,-81.1157
        1.8227870845,        1.8250759029, -0.4536, -0.5110, -0.0867, 34.4391,-13.5498,-81.1157
        1.8254349612,        1.8277249717, -0.4536, -0.5110, -0.0867, 34.4391,-13.5498,-81.1157
        1.8280830764,        1.8303730869, -0.4536, -0.5110, -0.0867, 34.4391,-13.5498,-52.8717
        1.8307330989,        1.8330269241, -0.4536, -0.5110, -0.0867,  6.4697, -7.6752,-52.8717
        1.8333828830,        1.8356659793, -0.6292,  0.1545, -0.2119,  6.4697, -7.6752,-52.8717
        1.8360200309,        1.8383050346, -0.6292,  0.1545, -0.2119,  6.4697, -7.6752,-52.8717
        1.8386559867,        1.8409440898, -0.6292,  0.1545, -0.2119,  6.4697, -7.6752,-21.6217
        1.8412950420,        1.8435929202, -0.6292,  0.1545, -0.2119,-13.2751, -8.5907,-22.5067
        1.8439491176,        1.8462419891, -0.6292,  0.1545, -0.2119,-13.2751, -8.5907,-22.5067
        1.8465989017,        1.8488901042, -0.6292,  0.1545, -0.2119,-13.2751, -8.5907,-22.5067
        1.8492460632,        1.8515310668, -0.6292,  0.1545, -0.2119,-13.2751, -8.5907,-22.5067
        1.8518860721,        1.8541798972, -0.6292,  0.3696, -0.2234,-16.4795, -6.4240,  1.8768
        1.8545360946,        1.8568220519, -0.3289,  0.3696, -0.2234,-16.4795, -6.4240,  1.8768
        1.8571730041,        1.8594661140, -0.3289,  0.3696, -0.2234,-16.4795, -6.4240,  1.8768
        1.8598199271,        1.8623130702, -0.3289,  0.3696, -0.2234,-16.4795, -6.4240,  1.8768
        1.8626690292,        1.8649518871, -0.3289,  0.3696, -0.2234,-16.9525, -3.0670, 25.0397
        1.8653080844,        1.8675980949, -0.3289,  0.3696, -0.2234,-16.9525, -3.0670, 25.0397
        1.8679531001,        1.8702419185, -0.3289,  0.3696, -0.2234,-16.9525, -3.0670, 25.0397
        1.8705969237,        1.8730340385, -0.3289,  0.3696, -0.2234,-16.9525, -3.0670, 25.0397
        1.8733909511,        1.8756831073, -0.2217,  0.4023, -0.1653,-18.9362,  0.5798, 49.8657
        1.8761608981,        1.8784530543, -0.2217,  0.4023, -0.1653,-18.9362,  0.5798, 49.8657
        1.8788099670,        1.8810949706, -0.2217,  0.4023, -0.1653,-18.9362,  0.5798, 49.8657
        1.8814509296,        1.8838389301, -0.2217,  0.4023, -0.1653,-18.9362,  0.5798, 49.8657
        1.8841970348,        1.8864930057, -0.2217,  0.4023, -0.1653,-21.4844,  5.4932, 72.0825
        1.8868489646,        1.8891439819, -0.2217,  0.4023, -0.1653,-21.4844,  5.4932, 72.0825
        1.8894989871,        1.8918331050, -0.2217,  0.4023, -0.1653,-21.4844,  5.4932, 72.0825
        1.8921909713,        1.8944809817, -0.4092,  0.2517, -0.1877,-21.4844,  5.4932, 72.0825
        1.8948369407,        1.8971269511, -0.4021,  0.2517, -0.1877,-27.0081, 10.2234, 91.9800
        1.8974860095,        1.8997819804, -0.4021,  0.2517, -0.1877,-27.0081, 10.2234, 91.9800
        1.9001419925,        1.9024420165, -0.4021,  0.2517, -0.1877,-27.0081, 10.2234, 91.9800
        1.9028010749,        1.9050889396, -0.4021,  0.2517, -0.1877,-27.0081, 10.2234, 91.9800
        1.9054479980,        1.9077399158, -0.4021,  0.2517, -0.1877,-35.9192, 12.5427,112.7625
        1.9081700229,        1.9104700469, -0.4021,  0.2517, -0.1877,-35.9192, 12.5427,112.7625
        1.9108291053,        1.9132790946, -0.4021,  0.2517, -0.1877,-35.9192, 12.5427,112.7625
        1.9136369609,        1.9159310245, -0.5430,  0.1431, -0.2144,-35.9192, 12.5427,112.7625
        1.9162910365,        1.9209978961, -0.5430,  0.1431, -0.2144,-44.4336, 13.0463,135.4828
        1.9213619613,        1.9236929797, -0.5430,  0.1431, -0.2144,-44.4336, 13.0463,135.4828
        1.9240520381,        1.9263470554, -0.5430,  0.1431, -0.2144,-44.4336, 13.0463,135.4828
        1.9267039680,        1.9289930247, -0.5430,  0.1431, -0.2144,-52.2461, 12.5122,155.9296
        1.9293520831,        1.9316449546, -0.5430,  0.1431, -0.2144,-54.3518, 12.5122,155.9296
        1.9320049667,        1.9342921161, -0.5430,  0.0735, -0.2141,-54.3518, 12.5122,155.9296
        1.9346518897,        1.9369419002, -0.6929,  0.0735, -0.2141,-54.3518, 12.5122,155.9296
        1.9373019122,        1.9395890617, -0.6929,  0.0735, -0.2141,-54.3518,  8.6060,174.8047
        1.9399469279,        1.9422529124, -0.6929,  0.0735, -0.2141,-64.4531, 10.9406,174.8047
        1.9426129245,        1.9449100875, -0.6929,  0.0735, -0.2141,-64.4531, 10.9406,174.8047
        1.9452679538,        1.9475610637, -0.6929,  0.0735, -0.2141,-64.4531, 10.9406,174.8047
        1.9479210757,        1.9502120399, -0.6929,  0.0735, -0.2141,-64.4531, 10.9406,192.5507
        1.9505730056,        1.9529450320, -0.6929,  0.0735, -0.2141,-70.9839,  9.8724,192.5507
        1.9533059978,        1.9555991077, -0.7065, -0.0115, -0.1780,-70.9839,  9.8724,192.5507
        1.9559569740,        1.9582500838, -0.7065, -0.0115, -0.1780,-70.9839,  9.8724,192.5507
        1.9586069965,        1.9609001064, -0.7065, -0.0115, -0.1780,-70.9839,  9.8724,208.1757
        1.9612570190,        1.9636400127, -0.7065, -0.0115, -0.1780,-74.4629, 10.1318,208.4198
        1.9640000247,        1.9662928962, -0.7065, -0.0115, -0.1780,-74.4629, 10.1318,208.4198
        1.9666510009,        1.9689419650, -0.7065, -0.0115, -0.1780,-74.4629, 10.1318,208.4198
        1.9693038844,        1.9715938949, -0.7065, -0.0115, -0.1780,-74.4629, 10.1318,208.4198
        1.9719519996,        1.9742520236, -0.7065, -0.0115, -0.2161,-74.6918, 11.2915,223.7091
        1.9746139430,        1.9769080066, -0.8042, -0.0032, -0.2161,-74.6918, 11.2915,223.7091
        1.9772670650,        1.9795608901, -0.8042, -0.0032, -0.2161,-74.6918, 11.2915,223.7091
        1.9799209022,        1.9823780440, -0.8042, -0.0032, -0.2161,-74.6918, 11.2915,223.7091
        1.9827399635,        1.9850309276, -0.8042, -0.0032, -0.2161,-72.6318, 12.8326,238.7543
        1.9853930854,        1.9876830959, -0.8042, -0.0032, -0.2161,-72.6318, 12.8326,238.7543
        1.9880419158,        1.9903319263, -0.8042, -0.0032, -0.2161,-72.6318, 12.8326,238.7543
        1.9906909846,        1.9930739783, -0.8042, -0.0032, -0.2161,-72.6318, 12.8326,238.7543
        1.9935560607,        1.9959791087, -0.9277, -0.0576, -0.2061,-71.9910, 14.6942,252.8534
        1.9963469886,        1.9987678909, -0.9277, -0.0576, -0.2061,-71.9910, 14.6942,252.8534
        1.9991369628,        2.0015590572, -0.9277, -0.0576, -0.2061,-71.9910, 14.6942,252.8534
        2.0019359969,        2.0043599986, -0.9277, -0.0576, -0.2061,-71.9910, 14.6942,252.8534
        2.0047281169,        2.0071490192, -0.9277, -0.0576, -0.2061,-64.6362, 15.3351,265.3809
        2.0075190448,        2.0099399470, -0.9277, -0.0576, -0.2061,-64.6362, 15.3351,265.3809
        2.0103071117,        2.0129309081, -0.9277, -0.0576, -0.2061,-64.6362, 15.3351,265.3809
        2.0132999801,        2.0156860732, -1.1055, -0.1384, -0.2090,-64.6362, 15.3351,279.1595
        2.0160489463,        2.0198650741, -1.1055, -0.1384, -0.2090,-50.8881, 15.3351,279.1595
        2.0202279472,        2.0226068877, -1.1055, -0.1384, -0.2090,-50.8881, 15.3351,279.1595
        2.0229668998,        2.0252600097, -1.1055, -0.1384, -0.2090,-50.8881, 15.3351,279.1595
        2.0256181144,        2.0279050254, -1.1055, -0.1384, -0.2090,-37.6740, 15.9454,292.3889
        2.0282619380,        2.0305540942, -1.1055, -0.1384, -0.2090,-37.6740, 15.9454,292.3889
        2.0309100532,        2.0332129382, -1.1055, -0.1384, -0.2090,-37.6740, 15.9454,292.3889
        2.0335710429,        2.0358610534, -1.4099, -0.1506, -0.2271,-37.6740, 15.9454,292.3889
        2.0362189197,        2.0385110759, -1.4099, -0.1506, -0.2271,-32.1045, 18.6768,304.7943
        2.0388679885,        2.0411620521, -1.4099, -0.1506, -0.2271,-32.1045, 18.6768,304.7943
        2.0415211105,        2.0438709640, -1.4099, -0.1506, -0.2271,-32.1045, 18.6768,304.7943
        2.0442300224,        2.0465190791, -1.4099, -0.1506, -0.2271,-32.1045, 18.6768,304.7943
        2.0468769454,        2.0491691016, -1.4099, -0.1506, -0.2271,-28.6865, 20.5688,316.6809
        2.0495269679,        2.0518229388, -1.4099, -0.1506, -0.2271,-28.6865, 20.5688,316.6809
        2.0521819972,        2.0544779681, -1.4099, -0.1506, -0.3525,-28.6865, 20.5688,316.6809
        2.0548339271,        2.0571189307, -1.8582, -0.4648, -0.3525,-28.6865, 20.5688,316.6809
        2.0574748897,        2.0597689532, -1.8582, -0.4648, -0.3525,-24.7803, 21.1792,327.8961
        2.0601289653,        2.0625119590, -1.8582, -0.4648, -0.3525,-27.2369, 21.1792,327.8961
        2.0628691100,        2.0651688956, -1.8582, -0.4648, -0.3525,-27.2369, 21.1792,327.8961
        2.0655270003,        2.0678251170, -1.8582, -0.4648, -0.3525,-27.2369, 21.1792,327.8961
        2.0681829833,        2.0704811000, -1.8582, -0.4648, -0.3525,-27.2369, 20.0500,334.3506
        2.0708380126,        2.0732438945, -1.8582, -0.4648, -0.3525,-28.4271, 20.0500,334.3506
        2.0736019992,        2.0758970164, -1.9746, -1.1211, -0.3618,-28.4271, 20.0500,334.3506
        2.0762548827,        2.0785499000, -1.9746, -1.1211, -0.3618,-28.4271, 20.0500,334.3506
        2.0789080047,        2.0812049293, -1.9746, -1.1211, -0.3618,-28.4271, 20.0500,331.8024
        2.0815630340,        2.0840180301, -1.9746, -1.1211, -0.3618,-26.3519, 21.5759,331.8024
        2.0843820953,        2.0868020438, -1.9746, -1.1211, -0.3618,-26.3519, 21.5759,331.8024
        2.0871639632,        2.0895870113, -1.9746, -1.1211, -0.3618,-26.3519, 21.5759,331.8024
        2.0899520301,        2.0923550510, -1.9746, -1.1211, -0.3618,-26.3519, 23.1171,324.4324
        2.0927129172,        2.0950088882, -1.9746, -1.3206, -0.2761,-17.5171, 23.1171,324.4324
        2.0953650855,        2.0976589107, -2.0430, -1.3206, -0.2761,-17.5171, 23.1171,324.4324
        2.0980151080,        2.1003110789, -2.0430, -1.3206, -0.2761,-17.5171, 23.1171,324.4324
        2.1006670379,        2.1029730224, -2.0430, -1.3206, -0.2761,-17.5171, 27.0233,312.8204
        2.1033308887,        2.1056199454, -2.0430, -1.3206, -0.2761, -7.5073, 23.5596,312.8204
        2.1059770965,        2.1082659148, -2.0430, -1.3206, -0.2761, -7.5073, 23.5596,312.8204
        2.1086199664,        2.1109130763, -2.0430, -1.3206, -0.2761, -7.5073, 23.5596,312.8204
        2.1113779926,        2.1138599300, -2.0430, -1.3206, -0.2761, -7.5073, 23.5596,291.5649
        2.1142149352,        2.1165180587, -2.3333, -1.2012, -0.4062, -6.2714, 23.0713,291.5649
        2.1168721103,        2.1191599750, -2.3333, -1.2012, -0.4062, -6.2714, 23.0713,291.5649
        2.1195159339,        2.1218119048, -2.3333, -1.2012, -0.4062, -6.2714, 23.0713,291.5649
        2.1221669101,        2.1244619273, -2.3333, -1.2012, -0.4062, -6.2714, 23.0713,264.2212
        2.1248159789,        2.1271078967, -2.3333, -1.2012, -0.4062,-20.5841, 19.3481,262.2986
        2.1274640941,        2.1298818969, -2.3333, -1.2012, -0.4062,-20.5841, 19.3481,262.2986
        2.1302400016,        2.1330631160, -2.3333, -1.2012, -0.4062,-20.5841, 19.3481,262.2986
        2.1334410094,        2.1361248874, -1.7461, -2.1885, -0.5498,-40.1154, 20.4163,228.7598
        2.1364870452,        2.1387811088, -1.7461, -2.1885, -0.5498,-42.1600, 20.4163,228.7598
        2.1391370677,        2.1414299392, -1.7461, -2.1885, -0.5498,-42.1600, 20.4163,228.7598
        2.1417940044,        2.1440871143, -1.7461, -2.1885, -0.5498,-42.1600, 20.4163,228.7598
        2.1444449805,        2.1467330836, -1.7461, -2.1885, -0.5498,-42.1600, 32.1350,182.3578
        2.1470930957,        2.1493809604, -1.7461, -2.1885, -0.5498,-37.7502, 34.8511,182.3578
        2.1497381114,        2.1520429038, -1.7461, -2.1885, -0.5498,-37.7502, 34.8511,182.3578
        2.1524000549,        2.1546929263, -1.7461, -2.1885,  0.0127,-37.7502, 34.8511,182.3578
        2.1550510310,        2.1573479556, -0.9595, -3.1038,  0.0581,-37.7502, 34.8511,108.3527
        2.1577060603,        2.1599960708, -0.9595, -3.1038,  0.0581, -1.2054, 49.4843,108.3527
        2.1603529834,        2.1626470470, -0.9595, -3.1038,  0.0581, -1.2054, 49.4843,108.3527
        2.1630039596,        2.1652980231, -0.9595, -3.1038,  0.0581, -1.2054, 49.4843,108.3527
        2.1656539821,        2.1679408931, -0.9595, -3.1038,  0.0581, -1.2054, 49.4843, 14.6027
        2.1682980441,        2.1705849551, -0.9595, -3.1038,  0.0581, 21.2250, 37.0331, 14.9231
        2.1709430598,        2.1732879066, -0.9595, -3.1038,  0.0581, 21.2250, 37.0331, 14.9231
        2.1736450576,        2.1759341144, -1.4983, -1.7822,  0.0051, 21.2250, 37.0331, 14.9231
        2.1762929343,        2.1785879516, -1.4983, -1.7822,  0.0051, 21.2250, 37.0331, 14.9231
        2.1789451026,        2.1812339210, -1.4983, -1.7822,  0.0051,  5.7373, 13.0615,-63.1561
        2.1815879726,        2.1840320014, -1.4983, -1.7822,  0.0051,  5.7373, 13.0615,-63.1561
        2.1843889140,        2.1866848849, -1.4983, -1.7822,  0.0051,  5.7373, 13.0615,-63.1561
        2.1870370292,        2.1893330001, -1.4983, -1.7822,  0.0051,  5.7373, 13.0615,-63.1561
        2.1896860980,        2.1920969867, -1.4983, -1.7822,  0.0051,-18.5242,  1.1597,-105.4535
        2.1924529456,        2.1947501086, -1.4983, -1.7822,  0.0676,-18.5242,  1.1597,-105.4535
        2.1951029681,        2.1973998927, -1.3184, -0.7876,  0.0669,-18.5242,  1.1597,-105.4535
        2.1977560901,        2.2000499152, -1.3184, -0.7876,  0.0669,-18.5242,  1.1597,-105.4535
        2.2004070663,        2.2027810001, -1.3184, -0.7876,  0.0669,-43.7622,-10.2539,-131.7139
        2.2031400584,        2.2054319762, -1.3184, -0.7876,  0.0669,-43.7622,-10.2539,-131.7139
        2.2057910346,        2.2080860519, -1.3184, -0.7876,  0.0669,-43.7622,-10.2539,-131.7139
        2.2084451102,        2.2107329749, -1.3184, -0.7876,  0.0669,-43.7622,-10.2539,-131.7139
        2.2110898875,        2.2133880042, -1.3184, -0.7876,  0.0669,-62.2711, -5.6152,-124.2218
        2.2137439632,        2.2160349273, -1.5823,  2.2832, -0.2485,-62.2711, -5.6152,-124.2218
        2.2163880252,        2.2186780357, -1.5823,  2.2832, -0.2485,-62.2711, -5.6152,-124.2218
        2.2190320872,        2.2213280582, -1.5823,  2.2832, -0.2485,-62.2711, -5.6152,-124.2218
        2.2216821098,        2.2239780807, -1.5823,  2.2832, -0.2485,-83.5571,  1.0834,-62.8662
        2.2244480037,        2.2268460178, -1.5823,  2.2832, -0.2485,-83.5571,  1.0834,-62.8662
        2.2272010230,        2.2294919871, -1.5823,  2.2832, -0.2485,-83.5571,  1.0834,-62.8662
        2.2298450851,        2.2323170089, -1.5823,  2.2832, -0.2485,-83.5571,  1.0834,-62.8662
        2.2326729678,        2.2349670314, -1.5823,  2.2832,  0.0640,-38.1317, 11.6882,-41.2750
        2.2353248977,        2.2396428966, -1.3611,  0.0576,  0.0769,-38.1317, 11.6882,-41.2750
        2.2400060081,        2.2424080753, -1.3611,  0.0576,  0.0769,-38.1317, 11.6882,-41.2750
        2.2427659415,        2.2450640582, -1.3611,  0.0576,  0.0769,-81.1005, -2.3956,-127.4872
        2.2454190635,        2.2477150344, -1.3611,  0.0576,  0.0769,-78.3234, -2.3956,-127.4872
        2.2480700397,        2.2503610038, -1.3611,  0.0576,  0.0769,-78.3234, -2.3956,-127.4872
        2.2507179164,        2.2530138873, -1.3611,  0.0576,  0.0769,-78.3234, -2.3956,-127.4872
        2.2533700847,        2.2556610488, -1.3611, -0.6765, -0.3655,-78.3234,  1.5106,-150.5585
        2.2560160541,        2.2583089255, -1.7390, -0.6765, -0.3655,-95.1691,  1.3733,-150.5585
        2.2586639308,        2.2609539413, -1.7390, -0.6765, -0.3655,-95.1691,  1.3733,-150.5585
        2.2613089465,        2.2636158847, -1.7390, -0.6765, -0.3655,-95.1691,  1.3733,-150.5585
        2.2639720821,        2.2662680530, -1.7390, -0.6765, -0.3655,-95.1691,  1.3733,-116.5619
        2.2666230582,        2.2689190292, -1.7390, -0.6765, -0.3655,-48.7518, 16.0980,-116.5619
        2.2692780875,        2.2715690517, -1.7390, -0.6765, -0.3655,-48.7518, 16.0980,-116.5619
        2.2719281100,        2.2742209815, -1.7390, -0.6765, -0.3655,-48.7518, 16.0980,-116.5619
        2.2745778941,        2.2768669509, -1.6846, -0.2966,  0.0659,-48.7518, 16.0980,-116.5619
        2.2772250556,        2.2795179271, -1.6846, -0.2966,  0.0659,-58.4259, 18.7836,-124.6338
        2.2798760318,        2.2823439025, -1.6846, -0.2966,  0.0659,-58.4259, 18.7836,-124.6338
        2.2827020072,        2.2849970245, -1.6846, -0.2966,  0.0659,-58.4259, 18.7836,-124.6338
        2.2853539371,        2.2876439475, -1.6846, -0.2966,  0.0659,-58.4259, 18.7836,-124.6338
        2.2880039596,        2.2902920627, -1.6846, -0.2966,  0.0659,-49.6979, 11.1237,-129.1046
        2.2906499290,        2.2930629634, -1.6846, -0.2966,  0.0659,-49.6979, 11.1237,-129.1046
        2.2934220218,        2.2957139396, -1.6846, -0.4216,  0.0120,-49.6979, 11.1237,-129.1046
        2.2960729980,        2.2983661079, -1.1863, -0.4333,  0.0120,-49.6979, 11.1237,-129.1046
        2.2987239741,        2.3010170840, -1.1863, -0.4333,  0.0120,  4.7760, 17.5018,-118.2861
        2.3013739967,        2.3037150287, -1.1863, -0.4333,  0.0120,  4.7760, 17.5018,-118.2861
        2.3040728950,        2.3063650512, -1.1863, -0.4333,  0.0120,  4.7760, 17.5018,-118.2861
        2.3067219638,        2.3090179347, -1.1863, -0.4333,  0.0120,  4.7760, 17.5018,-118.2861
        2.3093719863,        2.3116650962, -1.1863, -0.4333,  0.0120, 37.6282, 28.5339,-101.0590
        2.3120770835,        2.3143690013, -1.1863, -0.4333,  0.0120, 37.6282, 28.5339,-101.0590
        2.3147280597,        2.3170190238, -0.9595,  0.2075, -0.4043, 37.6282, 28.5339,-101.0590
        2.3173768901,        2.3196690463, -0.9595,  0.2075, -0.4043, 37.6282, 28.5339,-101.0590
        2.3200281047,        2.3227169894, -0.9595,  0.2075, -0.4043, 41.2140, 22.7051,-99.0295
        2.3230770015,        2.3253660583, -0.9595,  0.2075, -0.4043, 41.2140, 22.7051,-99.0295
        2.3257260703,        2.3290629768, -0.9595,  0.2075, -0.4043, 41.2140, 22.7051,-99.0295
        2.3295569801,        2.3319778823, -0.9595,  0.2075, -0.4043, 41.2140, 18.7988,-101.4404
        2.3324079894,        2.3350060367, -0.9595,  0.2075, -0.4043, 21.9727, 17.1204,-101.4404
        2.3353670024,        2.3383810901, -1.1790,  0.1587, -0.4333, 21.9727, 17.1204,-101.4404
        2.3395100021,        2.3448760890, -1.1790,  0.1587, -0.4333,  4.9286,  5.5847,-105.7434
        2.3452330016,        2.3475320720, -1.1790,  0.1587, -0.4333,  4.9286,  5.5847,-105.7434
        2.3480079555,        2.3503020190, -1.1790,  0.1587, -0.4333,  4.9286,  5.5847,-105.7434
        2.3506539249,        2.3529498958, -1.1790,  0.1587, -0.4333,  4.9286,  5.5847,-105.7434
        2.3533020400,        2.3555930041, -1.1790,  0.1587, -0.4353,  3.6316,  1.0071,-103.4698
        2.3559470557,        2.3582349204, -1.0989, -0.1262, -0.4353,  3.6316,  1.0071,-103.4698
        2.3585880183,        2.3608870887, -1.0989, -0.1262, -0.4353,  3.6316,  1.0071,-103.4698
        2.3612370872,        2.3636379623, -1.0989, -0.1262, -0.4353,  3.6316,  1.0071,-103.4698
        2.3639889144,        2.3662789249, -1.0989, -0.1262, -0.4353, 18.4174, -0.0458,-92.7582
        2.3666360759,        2.3689310931, -1.0989, -0.1262, -0.4353, 18.4174, -0.0458,-92.7582
        2.3692870521,        2.3715799236, -1.0989, -0.1262, -0.4353, 18.4174, -0.0458,-92.7582
        2.3719339751,        2.3742199325, -1.0989, -0.1262, -0.4353, 18.4174, -0.0458,-92.7582
        2.3745780372,        2.3768690013, -1.1182,  0.0332, -0.3618, 29.4189,  0.5798,-79.0253
        2.3772249602,        2.3795190238, -1.1182,  0.0332, -0.3618, 29.4189,  0.5798,-79.0253
        2.3798740291,        2.3821978950, -1.1182,  0.0332, -0.3618, 29.4189,  0.5798,-79.0253
        2.3825550460,        2.3848479175, -1.1182,  0.0332, -0.3618, 29.4189,  0.5798,-79.0253
        2.3852041148,        2.3874960326, -1.1182,  0.0332, -0.3618, 27.3895, -0.3357,-70.8923
        2.3878519916,        2.3901501083, -1.1182,  0.0332, -0.3618, 27.3895, -0.3357,-70.8923
        2.3905079745,        2.3929019355, -1.1182,  0.0332, -0.3618, 27.3895, -0.3357,-70.8923
        2.3932609939,        2.3955541038, -1.1182,  0.0332, -0.2993, 27.3895, -0.3357,-70.8923
        2.3959110164,        2.3981988811, -1.2351, -0.1128, -0.2729, 26.9623, -2.7313,-71.0297
        2.3985560321,        2.4008510493, -1.2351, -0.1128, -0.2729, 26.9623, -2.7313,-71.0297
        2.4012060546,        2.4036300563, -1.2351, -0.1128, -0.2729, 26.9623, -2.7313,-71.0297
        2.4039850616,        2.4062800788, -1.2351, -0.1128, -0.2729, 26.9623, -2.7313,-71.0297
        2.4066369914,        2.4089239024, -1.2351, -0.1128, -0.2729, 29.8920, -3.0975,-67.4438
        2.4092810535,        2.4115739249, -1.2351, -0.1128, -0.2729, 29.8920, -3.0975,-67.4438
        2.4119289302,        2.4142210864, -1.2351, -0.1128, -0.2729, 29.8920, -3.0975,-67.4438
        2.4145760917,        2.4168680095, -1.2297, -0.0291, -0.2534, 29.8920, -3.0975,-67.4438
        2.4172230148,        2.4195239925, -1.2297, -0.0291, -0.2534, 33.7982, -2.5330,-62.8510
        2.4198780440,        2.4223521136, -1.2297, -0.0291, -0.2534, 31.6467, -2.5330,-62.8510
        2.4227090263,        2.4250018977, -1.2297, -0.0291, -0.2534, 31.6467, -2.5330,-62.8510
        2.4253600024,        2.4277160548, -1.2297, -0.0291, -0.2534, 31.6467, -2.5330,-62.8510
        2.4280910873,        2.4308751010, -1.2297, -0.0291, -0.2534, 34.0424, -2.7618,-57.5409
        2.4319150829,        2.4342110538, -1.2297, -0.0291, -0.2534, 34.0424, -2.7618,-57.5409
        2.4345679664,        2.4368551158, -1.2053, -0.0959, -0.3010, 34.0424, -2.7618,-57.5409
        2.4372110747,        2.4395039462, -1.2053, -0.0959, -0.3010, 34.0424, -2.7618,-57.5409
        2.4398589515,        2.4422080897, -1.2053, -0.0959, -0.3010, 40.7867, -2.9297,-55.7709
        2.4425630950,        2.4448581123, -1.2053, -0.0959, -0.3010, 40.7867, -2.9297,-55.7709
        2.4452131175,        2.4475028896, -1.2053, -0.0959, -0.3010, 40.7867, -2.9297,-55.7709
        2.4478600406,        2.4501490974, -1.2053, -0.0959, -0.3010, 40.7867, -2.9297,-55.7709
        2.4505060100,        2.4528019809, -1.2053, -0.0959, -0.3010, 47.0581, -2.0294,-52.0935
        2.4531579398,        2.4554489040, -1.2053, -0.0959, -0.3010, 47.0581, -2.0294,-52.0935
        2.4558051013,        2.4580929660, -1.1924, -0.0400, -0.2603, 47.0581, -2.0294,-52.0935
        2.4584489249,        2.4607410812, -1.1924, -0.0400, -0.2603, 47.0581, -2.0294,-52.0935
        2.4612119579,        2.4635420226, -1.1924, -0.0400, -0.2603, 46.2646, -4.6539,-48.6755
        2.4638998889,        2.4661889457, -1.1924, -0.0400, -0.2603, 46.2646, -4.6539,-48.6755
        2.4665449046,        2.4688370608, -1.1924, -0.0400, -0.2603, 46.2646, -4.6539,-48.6755
        2.4691911124,        2.4714808845, -1.1924, -0.0400, -0.2603, 46.2646, -4.6539,-48.6755
        2.4719200515,        2.4742150687, -1.1924, -0.0400, -0.2603, 44.2047, -5.1117,-48.0804
        2.4745700740,        2.4768600845, -1.1299, -0.1169, -0.2007, 44.2047, -5.1117,-48.0804
        2.4772160434,        2.4795060538, -1.1550, -0.1169, -0.2007, 44.2047, -5.1117,-48.0804
        2.4798620128,        2.4823000812, -1.1550, -0.1169, -0.2007, 44.2047, -5.1117,-48.0804
        2.4826560401,        2.4849479579, -1.1550, -0.1169, -0.2007, 40.2985, -4.9896,-46.1731
        2.4853029632,        2.4875901126, -1.1550, -0.1169, -0.2007, 42.3126, -4.9896,-46.1731
        2.4879460715,        2.4902360820, -1.1550, -0.1169, -0.2007, 42.3126, -4.9896,-46.1731
        2.4905910873,        2.4929309272, -1.1550, -0.1169, -0.2007, 42.3126, -4.9896,-46.1731
        2.4932890319,        2.4955780887, -1.1550, -0.1169, -0.2007, 42.3126, -4.9896,-43.9453
        2.4959340476,        2.4982300185, -1.0808, -0.1282, -0.2568, 39.4897, -4.3335,-43.9453
        2.4985840701,        2.5008750343, -1.0808, -0.1282, -0.2568, 39.4897, -4.3335,-43.9453
        2.5012300395,        2.5035879993, -1.0808, -0.1282, -0.2568, 39.4897, -4.3335,-43.9453
        2.5039439582,        2.5062380218, -1.0808, -0.1282, -0.2568, 39.4897, -4.3335,-42.2211
        2.5065920734,        2.5088870906, -1.0808, -0.1282, -0.2568, 38.4674, -4.8981,-42.2211
        2.5092409038,        2.5115290069, -1.0808, -0.1282, -0.2568, 38.4674, -4.8981,-42.2211
        2.5118830585,        2.5141759299, -1.0808, -0.1282, -0.2568, 38.4674, -4.8981,-42.2211
        2.5145299815,        2.5168168925, -1.0808, -0.1211, -0.2942, 38.4674, -4.8981,-42.2211
        2.5171730899,        2.5194640540, -1.0581, -0.1211, -0.2942, 36.6669, -5.5695,-40.6494
        2.5198219203,        2.5222070598, -1.0581, -0.1211, -0.2942, 36.6669, -5.5695,-40.6494
        2.5225630187,        2.5249479198, -1.0581, -0.1211, -0.2942, 36.6669, -5.5695,-40.6494
        2.5253100776,        2.5276000880, -1.0581, -0.1211, -0.2942, 36.6669, -5.5695,-40.6494
        2.5279570007,        2.5302489185, -1.0581, -0.1211, -0.2942, 34.4696, -5.8746,-39.4897
        2.5306051158,        2.5329499625, -1.0581, -0.1211, -0.2942, 34.4696, -5.8746,-39.4897
        2.5333059215,        2.5355990314, -1.0581, -0.1211, -0.2942, 34.4696, -5.8746,-39.4897
        2.5359549903,        2.5383389377, -1.0217, -0.1475, -0.2976, 34.4696, -5.8746,-39.4897
        2.5386939429,        2.5409880065, -1.0217, -0.1475, -0.2976, 32.6538, -5.8899,-38.9862
        2.5413439655,        2.5451119327, -1.0217, -0.1475, -0.2976, 32.6538, -5.8899,-38.9862
        2.5454700374,        2.5477569484, -1.0217, -0.1475, -0.2976, 32.6538, -5.8899,-38.9862
        2.5481119537,        2.5503991031, -1.0217, -0.1475, -0.2976, 28.7476, -6.4850,-38.5590
        2.5507529163,        2.5531170749, -1.0217, -0.1475, -0.2976, 30.8838, -6.4850,-38.5590
        2.5534708881,        2.5557608985, -1.0217, -0.1475, -0.2976, 30.8838, -6.4850,-38.5590
        2.5561170959,        2.5584109210, -0.9849, -0.1348, -0.3391, 30.8838, -6.4850,-38.5590
        2.5587659263,        2.5610518836, -0.9849, -0.1348, -0.3391, 30.8838, -7.0343,-38.8031
        2.5614080810,        2.5637109660, -0.9849, -0.1348, -0.3391, 29.0070, -7.0343,-38.8031
        2.5640681171,        2.5663628959, -0.9849, -0.1348, -0.3391, 29.0070, -7.0343,-38.8031
        2.5667179012,        2.5690069579, -0.9849, -0.1348, -0.3391, 29.0070, -7.0343,-38.8031
        2.5693610095,        2.5716538810, -0.9849, -0.1348, -0.3391, 29.0070, -7.0343,-39.3677
        2.5720088863,        2.5743000888, -0.9849, -0.1348, -0.3391, 26.5198, -6.2561,-39.3677
        2.5746550941,        2.5769420051, -0.9849, -0.1348, -0.3491, 26.5198, -6.2561,-39.3677
        2.5774128818,        2.5797050380, -0.9756, -0.1858, -0.3491, 26.5198, -6.2561,-39.3677
        2.5800609969,        2.5823998832, -0.9756, -0.1858, -0.3491, 26.5198, -6.2561,-40.7562
        2.5827539348,        2.5850470447, -0.9756, -0.1858, -0.3491, 25.8331, -5.4169,-40.7562
        2.5854020499,        2.5876949214, -0.9756, -0.1858, -0.3491, 25.8331, -5.4169,-40.7562
        2.5880489730,        2.5903358840, -0.9756, -0.1858, -0.3491, 25.8331, -5.4169,-40.7562
        2.5906899356,        2.5931060695, -0.9756, -0.1858, -0.3491, 25.8331, -5.4169,-40.7562
        2.5934648894,        2.5957589530, -0.9756, -0.1858, -0.3491, 26.4282, -4.5929,-40.9393
        2.5961149120,        2.5984020614, -0.9365, -0.1753, -0.3359, 26.4282, -4.5929,-40.9393
        2.5987570666,        2.6010508918, -0.9365, -0.1753, -0.3359, 26.4282, -4.5929,-40.9393
        2.6014049434,        2.6038139247, -0.9365, -0.1753, -0.3359, 26.4282, -4.5929,-40.9393
        2.6041679763,        2.6064579868, -0.9365, -0.1753, -0.3359, 25.9094, -2.9144,-41.9159
        2.6068129920,        2.6091070556, -0.9365, -0.1753, -0.3359, 25.9094, -2.9144,-41.9159
        2.6094639682,        2.6117949866, -0.9365, -0.1753, -0.3359, 25.9094, -2.9144,-41.9159
        2.6121490382,        2.6144450092, -0.9365, -0.1753, -0.3359, 25.9094, -2.9144,-41.9159
        2.6148000144,        2.6170959853, -0.9365, -0.2378, -0.2708, 23.2086, -3.7079,-43.9758
        2.6174519443,        2.6197460078, -1.0015, -0.1951, -0.2708, 23.2086, -3.7079,-43.9758
        2.6201000594,        2.6223988914, -1.0015, -0.1951, -0.2708, 23.2086, -3.7079,-43.9758
        2.6227538966,        2.6250429534, -1.0015, -0.1951, -0.2708, 23.2086, -3.7079,-43.9758
        2.6254010581,        2.6278169536, -1.0015, -0.1951, -0.2708, 21.2402, -5.5847,-46.1578
        2.6281750583,        2.6304710292, -1.0015, -0.1951, -0.2708, 21.2402, -5.5847,-46.1578
        2.6308250808,        2.6332960509, -1.0015, -0.1951, -0.2708, 21.2402, -5.5847,-46.1578
        2.6336510562,        2.6359448814, -1.0015, -0.1951, -0.2708, 21.2402, -5.5847,-46.1578
        2.6362979793,        2.6419868850, -1.0859, -0.2402, -0.2075, 22.2931, -6.7291,-46.6614
        2.6434610271,        2.6466141128, -1.0859, -0.2402, -0.2075, 22.2931, -6.7291,-46.6614
        2.6469738864,        2.6492650890, -1.0859, -0.2402, -0.2075, 24.0173, -6.7596,-46.7072
        2.6496220016,        2.6519599342, -1.0859, -0.2402, -0.2075, 24.0173, -6.7596,-46.7072
        2.6523149394,        2.6546020888, -1.0859, -0.2402, -0.2075, 24.0173, -6.7596,-46.7072
        2.6549539947,        2.6572420978, -1.0859, -0.1777, -0.1594, 24.0173, -6.7596,-46.7072
        2.6575940036,        2.6598821067, -1.1685, -0.1409, -0.1594, 24.2615, -8.0414,-48.1415
        2.6602371120,        2.6625709914, -1.1685, -0.1409, -0.1594, 24.2615, -8.0414,-48.1415
        2.6629279040,        2.6652140998, -1.1685, -0.1409, -0.1594, 24.2615, -8.0414,-48.1415
        2.6655700587,        2.6678619765, -1.1685, -0.1409, -0.1594, 24.2615, -8.0414,-48.1415
        2.6682179355,        2.6705060386, -1.1685, -0.1409, -0.1594, 21.1487, -8.9569,-51.6663
        2.6708629512,        2.6731620216, -1.1685, -0.1409, -0.1594, 21.1487, -8.9569,-51.6663
        2.6735189342,        2.6758089446, -1.1685, -0.1409, -0.1594, 21.1487, -8.9569,-51.6663
        2.6761639499,        2.6784539603, -1.1467, -0.0613, -0.1428, 21.1487, -8.9569,-51.6663
        2.6788111114,        2.6810989761, -1.1467, -0.0613, -0.1428, 21.1487, -9.7961,-57.8308
        2.6814558887,        2.6839020633, -1.1467, -0.0613, -0.1428, 17.6544, -9.7961,-57.8308
        2.6842589759,        2.6865530395, -1.1467, -0.0613, -0.1428, 17.6544, -9.7961,-57.8308
        2.6869099521,        2.6891990089, -1.1467, -0.0613, -0.1428, 17.6544, -9.7961,-57.8308
        2.6895549678,        2.6919169807, -1.1467, -0.0613, -0.1428, 17.6544, -9.7961,-65.4144
        2.6922920131,        2.6945910834, -1.1467, -0.0613, -0.1428, 13.4583,-10.9558,-65.4144
        2.6949520492,        2.6972430133, -1.1467, -0.0613, -0.2266, 13.4583,-10.9558,-65.4144
        2.6977138900,        2.7000120067, -1.2043, -0.0081, -0.2266, 13.4583,-10.9558,-65.4144
        2.7003720187,        2.7028239154, -1.2043, -0.0081, -0.2266, 13.4583,-12.4054,-73.7152
        2.7031839275,        2.7054710769, -1.2043, -0.0081, -0.2266,  9.3994,-12.4054,-73.7152
        2.7058289432,        2.7081129932, -1.2043, -0.0081, -0.2266,  9.3994,-12.4054,-73.7152
        2.7084710979,        2.7107570552, -1.2043, -0.0081, -0.2266,  9.3994,-12.4054,-73.7152
        2.7111120605,        2.7134099387, -1.2043, -0.0081, -0.2266,  9.3994,-12.4054,-82.1228
        2.7137680434,        2.7160621070, -1.2043, -0.0081, -0.2266,  6.8512,-13.4888,-82.1228
        2.7164159202,        2.7187109374, -1.3164,  0.0173, -0.2075,  6.8512,-13.4888,-82.1228
        2.7190668964,        2.7213619136, -1.3164,  0.0173, -0.2075,  6.8512,-13.4888,-82.1228
        2.7217569732,        2.7240488910, -1.3164,  0.0173, -0.2075,  6.8512,-13.4888,-89.9353
        2.7244038963,        2.7266879462, -1.3164,  0.0173, -0.2075,  3.7689,-14.7552,-90.0421
        2.7270439052,        2.7293329620, -1.3164,  0.0173, -0.2075,  3.7689,-14.7552,-90.0421
        2.7296870135,        2.7320020580, -1.3164,  0.0173, -0.2075,  3.7689,-14.7552,-90.0421
        2.7323561095,        2.7347290897, -1.3164,  0.0173, -0.2075,  3.7689,-14.7552,-90.0421
        2.7350869559,        2.7373779201, -1.3164,  0.0173, -0.1892, -1.2665,-17.3645,-99.5026
        2.7377329253,        2.7400250816, -1.3823,  0.0557, -0.1892, -1.2665,-17.3645,-99.5026
        2.7403829478,        2.7428949260, -1.3823,  0.0557, -0.1892, -1.2665,-17.3645,-99.5026
        2.7432508849,        2.7455459022, -1.3823,  0.0557, -0.1892, -1.2665,-17.3645,-99.5026
        2.7459009074,        2.7508440398, -1.3823,  0.0557, -0.1892, -4.4861,-20.0500,-109.2834
        2.7512040519,        2.7535539054, -1.3823,  0.0557, -0.1892, -4.4861,-20.0500,-109.2834
        2.7539101028,        2.7562029742, -1.3823,  0.0557, -0.1892, -4.4861,-20.0500,-109.2834
        2.7565570258,        2.7588448905, -1.4683,  0.0520, -0.3218, -6.0730,-21.8811,-117.7521
        2.7592020415,        2.7614910983, -1.4683,  0.0520, -0.3218, -6.0730,-21.8811,-117.7521
        2.7618461036,        2.7641380214, -1.4683,  0.0520, -0.3218, -6.0730,-21.8811,-117.7521
        2.7644949340,        2.7667820834, -1.4683,  0.0520, -0.3218, -6.0730,-21.8811,-117.7521
        2.7671389960,        2.7694259071, -1.4683,  0.0520, -0.3218, -3.1128,-22.8577,-125.7782
        2.7697799586,        2.7720780753, -1.4683,  0.0520, -0.3218, -3.1128,-22.8577,-125.7782
        2.7724330806,        2.7747218990, -1.4683,  0.0520, -0.3218, -3.1128,-22.8577,-125.7782
        2.7750759505,        2.7773690604, -1.4683,  0.0520, -0.3843, -3.1128,-22.8577,-125.7782
        2.7777231120,        2.7800150298, -1.5393,  0.0613, -0.4187,  7.1411,-21.0419,-132.8278
        2.7803700351,        2.7827079677, -1.5393,  0.0613, -0.4187,  7.1411,-21.0419,-132.8278
        2.7830651187,        2.7853589439, -1.5393,  0.0613, -0.4187,  7.1411,-21.0419,-132.8278
        2.7857160949,        2.7880061053, -1.5393,  0.0613, -0.4187,  7.1411,-21.0419,-132.8278
        2.7883611106,        2.7906499290, -1.5393,  0.0613, -0.4187, 23.8342,-17.9291,-137.5122
        2.7910070800,        2.7934720897, -1.5393,  0.0613, -0.4187, 23.8342,-17.9291,-137.5122
        2.7938309096,        2.7961309337, -1.5393,  0.0613, -0.4187, 23.8342,-17.9291,-137.5122
        2.7964880847,        2.7987831020, -1.6477,  0.1079, -0.3367, 23.8342,-17.9291,-137.5122
        2.7991419219,        2.8014359855, -1.6477,  0.1079, -0.3367, 47.5769,-14.7095,-140.4114
        2.8018799209,        2.8043001079, -1.6477,  0.1079, -0.3367, 47.5769,-14.7095,-140.4114
        2.8046670341,        2.8070938968, -1.6477,  0.1079, -0.3367, 47.5769,-14.7095,-140.4114
        2.8074610614,        2.8098819637, -1.6477,  0.1079, -0.3367, 47.5769,-14.7095,-140.4114
        2.8102500819,        2.8126399898, -1.6477,  0.1079, -0.3367, 78.8879,-14.5416,-140.4266
        2.8131111049,        2.8154099368, -1.6477,  0.1079, -0.3367, 78.8879,-14.5416,-140.4266
        2.8157670879,        2.8180630588, -1.6477,  0.4939, -0.5100, 78.8879,-14.5416,-140.4266
        2.8184190177,        2.8207159423, -2.0269,  0.4939, -0.5100, 78.8879,-14.5416,-140.4266
        2.8210750007,        2.8233740710, -2.0269,  0.4939, -0.5100,115.4175,-13.9923,-138.0310
        2.8237328910,        2.8260240935, -2.0269,  0.4939, -0.5100,115.4175,-13.9923,-138.0310
        2.8263819598,        2.8286729240, -2.0269,  0.4939, -0.5100,115.4175,-13.9923,-138.0310
        2.8290319823,        2.8313210391, -2.0269,  0.4939, -0.5100,115.4175,-13.9923,-138.0310
        2.8316779517,        2.8341360473, -2.0269,  0.4939, -0.5100,146.9574, -8.4839,-142.5781
        2.8344920062,        2.8367820167, -2.0269,  0.4939, -0.5100,146.9574, -8.4839,-142.5781
        2.8371379756,        2.8394298934, -2.0986,  0.8955, -0.7795,146.9574, -8.4839,-142.5781
        2.8397839450,        2.8421469115, -2.0986,  0.8955, -0.7795,146.9574, -8.4839,-142.5781
        2.8425040626,        2.8447890662, -2.0986,  0.8955, -0.7795,143.0511, -1.6479,-156.6925
        2.8451459788,        2.8489549541, -2.0986,  0.8955, -0.7795,144.5160, -1.6479,-156.6925
        2.8493159198,        2.8516130828, -2.0986,  0.8955, -0.7795,144.5160, -1.6479,-156.6925
        2.8519668960,        2.8542590522, -2.0986,  0.8955, -0.7795,144.5160, -1.6479,-156.6925
        2.8546140575,        2.8569000148, -2.0986,  0.8955, -0.7795,103.8513, -1.1444,-185.1349
        2.8572559737,        2.8595400237, -2.0645, -0.3171, -0.5366,103.8513, -1.1444,-185.1349
        2.8598959827,        2.8622041129, -2.0645, -0.3171, -0.5366,103.8513, -1.1444,-185.1349
        2.8625591182,        2.8648460292, -2.0645, -0.3171, -0.5366,103.8513, -1.1444,-185.1349
        2.8652010345,        2.8674900912, -2.0645, -0.3171, -0.5366, 45.9137, -8.6365,-223.9685
        2.8678479575,        2.8701339149, -2.0645, -0.3171, -0.5366, 45.9137, -8.6365,-223.9685
        2.8704910659,        2.8727920436, -2.0645, -0.3171, -0.5366, 45.9137, -8.6365,-223.9685
        2.8731470489,        2.8754330062, -2.0645, -0.3171, -0.5366, 45.9137, -8.6365,-223.9685
        2.8757899188,        2.8780820750, -2.0645, -0.3171, -0.4961, 22.0947,-10.1166,-223.8312
        2.8784408950,        2.8807320975, -1.8167, -0.4143, -0.4961, 22.0947,-10.1166,-223.8312
        2.8810880565,        2.8833940410, -1.8167, -0.4143, -0.4961, 22.0947,-10.1166,-223.8312
        2.8837509536,        2.8860390567, -1.8167, -0.4143, -0.4961, 22.0947,-10.1166,-223.8312
        2.8863969230,        2.8886900329, -1.8167, -0.4143, -0.4961, 40.8478, -6.8817,-196.0297
        2.8890450381,        2.8913391017, -1.8167, -0.4143, -0.4961, 40.8478, -6.8817,-196.0297
        2.8916929149,        2.8940339469, -1.8167, -0.4143, -0.4961, 40.8478, -6.8817,-196.0297
        2.8943879985,        2.8966811084, -1.8167, -0.4143, -0.4961, 40.8478, -6.8817,-196.0297
        2.8970349216,        2.8993289851, -1.5193,  0.0503, -0.3879, 56.4728, -6.5308,-164.8102
        2.8996839904,        2.9021780872, -1.5193,  0.0503, -0.3879, 57.3120, -6.5308,-164.8102
        2.9025349998,        2.9048200034, -1.5193,  0.0503, -0.3879, 57.3120, -6.5308,-164.8102
        2.9051790618,        2.9074681186, -1.5193,  0.0503, -0.3879, 57.3120, -6.5308,-164.8102
        2.9078240775,        2.9101169490, -1.5193,  0.0503, -0.3879, 49.4995,-14.0076,-140.3198
        2.9104741000,        2.9127819919, -1.5193,  0.0503, -0.3879, 47.8821,-14.0076,-140.3198
        2.9131410503,        2.9154310607, -1.5193,  0.0503, -0.3879, 47.8821,-14.0076,-140.3198
        2.9157879733,        2.9180810832, -1.5193,  0.0503, -0.1965, 47.8821,-14.0076,-140.3198
        2.9184379958,        2.9207320594, -0.9932, -0.2478, -0.1965, 47.8821,-17.9138,-116.6382
        2.9210911178,        2.9233899497, -0.9932, -0.2478, -0.1965, 35.3546,-16.0522,-116.6382
        2.9237509154,        2.9260399722, -0.9932, -0.2478, -0.1965, 35.3546,-16.0522,-116.6382
        2.9265098952,        2.9288020515, -0.9932, -0.2478, -0.1965, 35.3546,-16.0522,-116.6382
        2.9291589641,        2.9314520740, -0.9932, -0.2478, -0.1965, 35.3546,-16.0522,-83.3588
        2.9317880057,        2.9340820693, -0.9932, -0.2478, -0.1965, 30.1514,-14.0533,-83.3588
        2.9344389819,        2.9368980312, -0.9932, -0.2478, -0.1965, 30.1514,-14.0533,-83.3588
        2.9372589969,        2.9395471000, -0.4465, -0.2324, -0.2522, 30.1514,-14.0533,-83.3588
        2.9399040126,        2.9423358821, -0.4465, -0.2324, -0.2522, 30.1514,-14.0533,-55.6183
        2.9426980399,        2.9450800800, -0.4465, -0.2324, -0.2522, 11.0779, -7.0648,-55.6183
        2.9454410457,        2.9480200195, -0.4465, -0.2324, -0.2522, 11.0779, -7.0648,-55.6183
        2.9483969592,        2.9507239246, -0.4465, -0.2324, -0.2522, 11.0779, -7.0648,-55.6183
        2.9510829829,        2.9534590625, -0.4465, -0.2324, -0.2522, 11.0779, -7.0648,-22.3083
        2.9538178825,        2.9561069392, -0.4465, -0.2324, -0.2522, -9.8267, -4.8218,-22.3083
        2.9564600372,        2.9587541007, -0.4465,  0.3425, -0.2090, -9.8267, -4.8218,-22.3083
        2.9591060065,        2.9613969707, -0.4241,  0.3425, -0.2090, -9.8267, -4.8218,-22.3083
        2.9617820167,        2.9640748882, -0.4241,  0.3425, -0.2090, -9.8267, -4.8218,  5.3101
        2.9644239330,        2.9667160892, -0.4241,  0.3425, -0.2090,-16.8915, -4.6844,  5.3101
        2.9670710944,        2.9693630122, -0.4241,  0.3425, -0.2090,-16.8915, -4.6844,  5.3101
        2.9697170638,        2.9720209026, -0.4241,  0.3425, -0.2090,-16.8915, -4.6844,  5.3101
        2.9723749541,        2.9746680640, -0.4241,  0.3425, -0.2090,-16.8915, -4.6844, 28.7476
        2.9750240230,        2.9773149871, -0.4241,  0.3425, -0.2090,-18.5699, -1.3580, 27.4963
        2.9776699924,        2.9799650096, -0.2527,  0.4590, -0.2307,-18.5699, -1.3580, 27.4963
        2.9803200149,        2.9826279067, -0.2527,  0.4590, -0.2307,-18.5699, -1.3580, 27.4963
        2.9829841041,        2.9852750682, -0.2527,  0.4590, -0.2307,-18.5699, -1.3580, 27.4963
        2.9856310271,        2.9879200839, -0.2527,  0.4590, -0.2307,-23.3002,  1.1902, 50.9491
        2.9882760429,        2.9905639075, -0.2527,  0.4590, -0.2307,-23.3002,  1.1902, 50.9491
        2.9909210586,        2.9932608985, -0.2527,  0.4590, -0.2307,-23.3002,  1.1902, 50.9491
        2.9936159038,        2.9959020995, -0.2527,  0.4590, -0.2307,-23.3002,  1.1902, 50.9491
        2.9962580585,        2.9985509299, -0.2527,  0.4590, -0.2527,-31.5399,  5.3711, 73.6084
        2.9989068889,        3.0011968993, -0.3579,  0.3484, -0.2527,-31.5399,  5.3711, 73.6084
        3.0015530967,        3.0039830589, -0.3579,  0.3484, -0.2527,-31.5399,  5.3711, 73.6084
        3.0043380641,        3.0087390327, -0.3579,  0.3484, -0.2527,-42.1448,  7.8888, 95.4132
        3.0091100120,        3.0113959693, -0.3579,  0.3484, -0.2527,-42.1448,  7.8888, 95.4132
        3.0117888831,        3.0141120338, -0.3579,  0.3484, -0.2527,-42.1448,  7.8888, 95.4132
        3.0144679927,        3.0167599105, -0.3579,  0.3484, -0.2527,-42.1448,  7.8888, 95.4132
        3.0171170615,        3.0194120788, -0.5432,  0.1643, -0.2517,-53.8177,  8.7891,115.6769
        3.0197689914,        3.0220749759, -0.5432,  0.1643, -0.2517,-53.8177,  8.7891,115.6769
        3.0224309348,        3.0247218990, -0.5432,  0.1643, -0.2517,-53.8177,  8.7891,115.6769
        3.0250780963,        3.0273690604, -0.5432,  0.1643, -0.2517,-53.8177,  8.7891,115.6769
        3.0277259731,        3.0300190829, -0.5432,  0.1643, -0.2517,-65.5365,  8.1024,137.1918
        3.0303728961,        3.0327170276, -0.5432,  0.1643, -0.2517,-66.0553,  8.1024,137.1918
        3.0330748939,        3.0355620765, -0.5432,  0.1643, -0.2517,-66.0553,  8.1024,137.1918
        3.0359180354,        3.0382099532, -0.5432,  0.1643, -0.2517,-66.0553,  8.1024,137.1918
        3.0385659122,        3.0408590221, -0.6733,  0.0583, -0.2341,-66.0553,  6.0730,158.4473
        3.0412180804,        3.0437789344, -0.6733,  0.0583, -0.2341,-76.5228,  6.0730,158.4473
        3.0442810439,        3.0466680907, -0.6733,  0.0583, -0.2341,-76.5228,  6.0730,158.4473
        3.0476301097,        3.0535920047, -0.6733,  0.0583, -0.2341,-84.4574,  3.2959,178.5583
        3.0539539241,        3.0590529823, -0.6733,  0.0583, -0.1716,-84.4574,  3.2959,178.5583
        3.0594120406,        3.0617080115, -0.7727, -0.0159, -0.1753,-84.4574,  3.2959,178.5583
        3.0621319198,        3.0644290828, -0.7727, -0.0159, -0.1753,-88.0737,  0.7019,197.9370
        3.0647890948,        3.0670740985, -0.7727, -0.0159, -0.1753,-88.0737,  0.7019,197.9370
        3.0674319648,        3.0697250747, -0.7727, -0.0159, -0.1753,-88.0737,  0.7019,197.9370
        3.0700838947,        3.0724161052, -0.7727, -0.0159, -0.1753,-88.0737,  0.7019,197.9370
        3.0727730178,        3.0750630283, -0.7727, -0.0159, -0.1753,-86.2274, -0.9155,215.6525
        3.0754189872,        3.0777130508, -0.7727, -0.0159, -0.1753,-86.2274, -0.9155,215.6525
        3.0780690097,        3.0803618812, -0.8684, -0.0271, -0.2012,-86.2274, -0.9155,215.6525
        3.0807190322,        3.0830169105, -0.8684, -0.0271, -0.2012,-86.2274, -0.9155,215.6525
        3.0833781146,        3.0856669330, -0.8684, -0.0271, -0.2012,-82.1228, -0.6409,229.5074
        3.0860278987,        3.0883179092, -0.8684, -0.0271, -0.2012,-82.1228, -0.6409,229.5074
        3.0886769675,        3.0909679317, -0.8684, -0.0271, -0.2012,-82.1228, -0.6409,229.5074
        3.0913250827,        3.0937230968, -0.8684, -0.0271, -0.2012,-82.1228, -0.6409,229.5074
        3.0940819167,        3.0963750266, -0.8684, -0.0271, -0.2012,-78.6896,  1.3428,240.8447
        3.0967300319,        3.0990269565, -0.8684, -0.0271, -0.2727,-78.6896,  1.3428,240.8447
        3.0993819617,        3.1016829395, -1.0547, -0.0012, -0.2727,-78.6896,  1.3428,240.8447
        3.1022270106,        3.1045260810, -1.0547, -0.0012, -0.2727,-78.6896,  1.3428,240.8447
        3.1048820399,        3.1071820640, -1.0547, -0.0012, -0.2727,-75.2563,  0.7477,252.1820
        3.1075408839,        3.1098359012, -1.0547, -0.0012, -0.2727,-75.2563,  0.7477,252.1820
        3.1101930522,        3.1126480483, -1.0547, -0.0012, -0.2727,-75.2563,  0.7477,252.1820
        3.1130080604,        3.1152999782, -1.0547, -0.0012, -0.2727,-75.2563,  0.7477,252.1820
        3.1156599902,        3.1179540538, -1.0547, -0.0012, -0.2727,-72.3114, -1.2512,262.9547
        3.1183131122,        3.1206090831, -1.1409, -0.2014, -0.2173,-72.3114, -1.2512,262.9547
        3.1209619426,        3.1233890437, -1.1409, -0.2014, -0.2173,-72.3114, -1.2512,262.9547
        3.1237509631,        3.1261721038, -1.1409, -0.2014, -0.2173,-72.3114, -1.2512,262.9547
        3.1265368842,        3.1289539718, -1.1409, -0.2014, -0.2173,-63.4766, -0.4578,272.9492
        3.1293180370,        3.1317859077, -1.1409, -0.2014, -0.2173,-63.4766, -0.4578,272.9492
        3.1321409129,        3.1344399833, -1.1409, -0.2014, -0.2173,-63.4766, -0.4578,272.9492
        3.1347949886,        3.1370931052, -1.1409, -0.2014, -0.2173,-63.4766, -0.4578,272.9492
        3.1374500178,        3.1399009608, -1.3647, -0.2651, -0.3291,-54.7028,  1.9073,284.5306
        3.1402550124,        3.1427500629, -1.3647, -0.2651, -0.3291,-54.7028,  1.9073,284.5306
        3.1431069755,        3.1453910255, -1.3647, -0.2651, -0.3291,-54.7028,  1.9073,284.5306
        3.1457450771,        3.1499588870, -1.3647, -0.2651, -0.3291,-54.7028,  5.8136,296.0510
        3.1503179454,        3.1527429008, -1.3647, -0.2651, -0.3291,-48.4314,  4.1351,296.0510
        3.1531000518,        3.1553941154, -1.3647, -0.2651, -0.3291,-48.4314,  4.1351,296.0510
        3.1557500743,        3.1580438995, -1.3647, -0.2651, -0.3291,-48.4314,  4.1351,296.0510
        3.1583989047,        3.1606939220, -1.6396, -0.3137, -0.3767,-48.4314,  3.2654,306.8390
        3.1610498809,        3.1633448981, -1.6396, -0.3137, -0.3767,-43.2434,  3.2654,306.8390
        3.1637020492,        3.1659930133, -1.6396, -0.3137, -0.3767,-43.2434,  3.2654,306.8390
        3.1664619826,        3.1687560462, -1.6396, -0.3137, -0.3767,-43.2434,  3.2654,306.8390
        3.1691120052,        3.1714051150, -1.6396, -0.3137, -0.3767,-43.2434,  3.2654,317.2913
        3.1717911147,        3.1740839862, -1.6396, -0.3137, -0.3767,-41.5497,  1.7395,317.2913
        3.1744389915,        3.1767321014, -1.6396, -0.3137, -0.3767,-41.5497,  1.7395,317.2913
        3.1770871066,        3.1793809318, -1.6396, -0.5637, -0.4285,-41.5497,  1.7395,317.2913
        3.1797380828,        3.1821449184, -1.9041, -0.6245, -0.4285,-41.5497,  1.7395,324.3866
        3.1824999236,        3.1847970866, -1.9041, -0.6245, -0.4285,-40.4358,  1.4496,324.3866
        3.1851530456,        3.1874409103, -1.9041, -0.6245, -0.4285,-40.4358,  1.4496,324.3866
        3.1877949619,        3.1900790118, -1.9041, -0.6245, -0.4285,-40.4358,  1.4496,324.3866
        3.1904340171,        3.1929080867, -1.9041, -0.6245, -0.4285,-40.4358,  1.4496,325.5615
        3.1932649993,        3.1955650233, -1.9041, -0.6245, -0.4285,-32.9437,  4.5776,325.5615
        3.1959200286,        3.1982140922, -1.9041, -0.6245, -0.4285,-32.9437,  4.5776,325.5615
        3.1985690974,        3.2008710288, -1.9243, -1.0120, -0.3281,-32.9437,  4.5776,325.5615
        3.2012250804,        3.2036230945, -1.9243, -1.0120, -0.3281,-32.9437,  4.5776,317.7490
        3.2039759540,        3.2062709712, -1.9243, -1.0120, -0.3281,-18.9362, 11.0779,320.0531
        3.2066278838,        3.2089229011, -1.9243, -1.0120, -0.3281,-18.9362, 11.0779,320.0531
        3.2092810058,        3.2115719699, -1.9243, -1.0120, -0.3281,-18.9362, 11.0779,320.0531
        3.2119300746,        3.2142310523, -1.9243, -1.0120, -0.3281,-18.9362, 11.0779,320.0531
        3.2145879649,        3.2168870353, -1.9243, -1.0120, -0.3281, -4.2419, 17.3950,309.3109
        3.2172389411,        3.2195330047, -1.9243, -1.0120, -0.3010, -4.2419, 17.3950,309.3109
        3.2198849105,        3.2222140216, -2.2703, -1.0779, -0.3010, -4.2419, 17.3950,309.3109
        3.2225690269,        3.2248540305, -2.2703, -1.0779, -0.3010, -4.2419, 17.3950,309.3109
        3.2252059364,        3.2274990462, -2.2703, -1.0779, -0.3010,  4.4250, 19.7906,293.5181
        3.2278540515,        3.2301369094, -2.2703, -1.0779, -0.3010,  4.4250, 19.7906,293.5181
        3.2304919147,        3.2328689479, -2.2703, -1.0779, -0.3010,  4.4250, 19.7906,293.5181
        3.2332239532,        3.2355258845, -2.2703, -1.0779, -0.3010,  4.4250, 19.7906,293.5181
        3.2358789825,        3.2381670856, -2.2703, -1.0779, -0.3010,  0.6104, 19.3329,270.9503
        3.2385208987,        3.2409949683, -2.1509, -1.4834, -0.3628,  0.6104, 19.3329,270.9503
        3.2413499736,        3.2438269042, -2.1509, -1.4834, -0.3628,  0.6104, 19.3329,270.9503
        3.2441840552,        3.2464719199, -2.1509, -1.4834, -0.3628,  0.6104, 19.3329,270.9503
        3.2468269252,        3.2519081020, -2.1509, -1.4834, -0.3628,-12.2223, 20.1721,242.5079
        3.2522828960,        3.2545879268, -2.1509, -1.4834, -0.3628,-12.2223, 20.1721,242.5079
        3.2549479388,        3.2572410487, -2.1509, -1.4834, -0.3628,-12.2223, 20.1721,242.5079
        3.2576020145,        3.2598839187, -2.1509, -2.6084, -0.2825,-17.0135, 30.0446,201.4313
        3.2602401160,        3.2625821017, -1.1462, -2.6052, -0.2825,-17.0135, 30.0446,201.4313
        3.2629380607,        3.2652290248, -1.1462, -2.6052, -0.2825,-17.0135, 30.0446,201.4313
        3.2655849837,        3.2678759479, -1.1462, -2.6052, -0.2825,-17.0135, 30.0446,201.4313
        3.2682319068,        3.2705281161, -1.1462, -2.6052, -0.2825, -5.9662, 42.9230,132.4310
        3.2708819293,        3.2731809997, -1.1462, -2.6052, -0.2825, -5.9662, 42.9230,132.4310
        3.2735369586,        3.2758300685, -1.1462, -2.6052, -0.2825, -5.9662, 42.9230,132.4310
        3.2761850738,        3.2784779452, -1.1462, -2.6052, -0.2825, -5.9662, 42.9230,132.4310
        3.2788319968,        3.2811220073, -1.4045, -2.3877,  0.1995,  3.7537, 34.3628, 47.5769
        3.2814751052,        3.2837729835, -1.4045, -2.3877,  0.1995,  3.7537, 34.3628, 47.5769
        3.2842440986,        3.2865360164, -1.4045, -2.3877,  0.1995,  3.7537, 34.3628, 47.5769
        3.2868891143,        3.2891829395, -1.4045, -2.3877,  0.1995,  3.7537, 34.3628, 47.5769
        3.2895369910,        3.2918289088, -1.4045, -2.3877,  0.1995, -3.1891, 11.5967,-33.0505
        3.2921851062,        3.2944739246, -1.4045, -2.3877,  0.1995, -3.1891, 11.5967,-33.0505
        3.2948289298,        3.2971170329, -1.4045, -2.3877,  0.1995, -3.1891, 11.5967,-33.0505
        3.2974689387,        3.2997610950, -1.4045, -2.3877, -0.1633, -3.1891, 11.5967,-33.0505
        3.3001139545,        3.3025000476, -1.5293, -1.5862, -0.1633, -3.1891,  1.2207,-84.7931
        3.3028519534,        3.3051450633, -1.5293, -1.5862, -0.1633,-17.1204,  1.2207,-84.7931
        3.3055010223,        3.3077888869, -1.5293, -1.5862, -0.1633,-17.1204,  1.2207,-84.7931
        3.3081419849,        3.3104329490, -1.5293, -1.5862, -0.1633,-17.1204,  1.2207,-84.7931
        3.3107889079,        3.3132429504, -1.5293, -1.5862, -0.1633,-17.1204, -6.5918,-121.1243
        3.3135960483,        3.3158860587, -1.5293, -1.5862, -0.1633,-29.9072, -6.1493,-121.1243
        3.3162389182,        3.3185279750, -1.5293, -1.5862, -0.1633,-29.9072, -6.1493,-121.1243
        3.3188810729,        3.3211729907, -1.2429, -0.2092, -0.2480,-29.9072, -6.1493,-121.1243
        3.3215279960,        3.3238640212, -1.2429, -0.2092, -0.2480,-29.9072, -6.1493,-125.9766
        3.3242180728,        3.3265118980, -1.2429, -0.2092, -0.2480,-35.4767, -6.3934,-125.9766
        3.3268669032,        3.3291569137, -1.2429, -0.2092, -0.2480,-35.4767, -6.3934,-125.9766
        3.3295119189,        3.3318069362, -1.2429, -0.2092, -0.2480,-35.4767, -6.3934,-125.9766
        3.3321600341,        3.3344509982, -1.2429, -0.2092, -0.2480,-35.4767, -6.3934,-102.5391
        3.3348060035,        3.3370960139, -1.2429, -0.2092, -0.2480,-44.6625, -1.7548,-101.8982
        3.3374510192,        3.3397429370, -1.2429, -0.2092, -0.2480,-44.6625, -1.7548,-101.8982
        3.3400960349,        3.3426831149, -1.4927,  2.6042, -0.2244,-44.6625, -1.7548,-101.8982
        3.3430450343,        3.3454308891, -1.4927,  2.6042, -0.2244,-44.6625, -1.7548,-47.2107
        3.3457880401,        3.3508999728, -1.4927,  2.6042, -0.2244,-58.2886,  4.2725,-47.2260
        3.3512580775,        3.3551319026, -1.4927,  2.6042, -0.2244,-58.2886,  4.2725,-47.2260
        3.3555510425,        3.3579240226, -1.4927,  2.6042, -0.2244,-22.7356,  5.4169,-52.1851
        3.3582790279,        3.3605730914, -1.4927, -0.7083,  0.3423,-22.7356,  5.4169,-52.1851
        3.3609290504,        3.3632269286, -1.6389, -0.7083,  0.3423,-22.7356,  5.4169,-52.1851
        3.3635819339,        3.3658700370, -1.6389, -0.7083,  0.3423,-22.7356,  5.4169,-52.1851
        3.3662259959,        3.3685150527, -1.6389, -0.7083,  0.3423,-55.9387, -9.3994,-99.4568
        3.3688700580,        3.3711629295, -1.6389, -0.7083,  0.3423,-55.9387, -9.3994,-99.4568
        3.3715188884,        3.3738580131, -1.6389, -0.7083,  0.3423,-55.9387, -9.3994,-99.4568
        3.3742130183,        3.3765099429, -1.6389, -0.7083,  0.3423,-55.9387, -9.3994,-99.4568
        3.3768649482,        3.3791571044, -1.6389, -0.7083,  0.3423,-41.3971,  4.1351,-106.7047
        3.3795140170,        3.3818400287, -1.4934, -0.1274, -0.6582,-41.3971,  4.1351,-106.7047
        3.3821969413,        3.3844879054, -1.4934, -0.1274, -0.6582,-41.3971,  4.1351,-106.7047
        3.3848419570,        3.3871360206, -1.4934, -0.1274, -0.6582,-41.3971,  4.1351,-106.7047
        3.3874900722,        3.3897850894, -1.4934, -0.1274, -0.6582,-17.9596, 25.5127,-91.2933
        3.3901410484,        3.3924370193, -1.4934, -0.1274, -0.6582,-16.0065, 25.5127,-91.2933
        3.3927939319,        3.3950889491, -1.4934, -0.1274, -0.6582,-16.0065, 25.5127,-91.2933
        3.3954461002,        3.3977361106, -1.4934, -0.1274, -0.6582,-16.0065, 25.5127,-91.2933
        3.3980939769,        3.4003830337, -1.4934, -0.2524,  0.1240,-16.0065, 17.7002,-107.2845
        3.4007449531,        3.4030740642, -1.7554, -0.2534,  0.1240,-30.8838, 17.7307,-107.2845
        3.4035470866,        3.4058399581, -1.7554, -0.2534,  0.1240,-30.8838, 17.7307,-107.2845
        3.4061980628,        3.4084880733, -1.7554, -0.2534,  0.1240,-30.8838, 17.7307,-107.2845
        3.4088468932,        3.4111431026, -1.7554, -0.2534,  0.1240,-30.8838, 17.7307,-113.6169
        3.4115019225,        3.4138689422, -1.7554, -0.2534,  0.1240,-43.7775, 13.8855,-113.6169
        3.4142299079,        3.4165220641, -1.7554, -0.2534,  0.1240,-43.7775, 13.8855,-113.6169
        3.4168808841,        3.4191739940, -1.7554, -0.2534,  0.1240,-43.7775, 13.8855,-113.6169
        3.4195330524,        3.4218290233, -1.1255, -0.3237, -0.0051,-43.7775, 13.8855,-105.8044
        3.4221868896,        3.4244799995, -1.1255, -0.3237, -0.0051,-21.4233, 18.5242,-109.0851
        3.4248381042,        3.4271269225, -1.1255, -0.3237, -0.0051,-21.4233, 18.5242,-109.0851
        3.4274840736,        3.4297750377, -1.1255, -0.3237, -0.0051,-21.4233, 18.5242,-109.0851
        3.4301340961,        3.4324310207, -1.1255, -0.3237, -0.0051,-21.4233, 18.5242,-109.0851
