timestamp_before,timestamp_after,accel_x,accel_y,accel_z,gyro_x,gyro_y,gryo_z
2.9799E-06,0.004428029,-0.3599,-0.0002,-0.345,0.5951,-1.9226,-1.4038
0.005080104,0.007604003,-1.0781,-0.0127,-0.345,1.0529,-1.7395,-1.4038
0.008111119,0.011136889,-1.0781,-0.0127,-0.345,1.0529,-1.7395,-1.4038
0.011637091,0.01405704,-1.0781,-0.0127,-0.345,1.0529,-1.7395,-1.4038
0.015565991,0.017866015,-1.0781,-0.0127,-0.345,1.4343,-1.9226,-1.4343
0.019049048,0.022018075,-1.0781,-0.0127,-0.345,1.4343,-1.9226,-1.4343
0.025067925,0.027358889,-1.0762,-0.019,-0.3472,1.1292,-1.8005,-1.1292
0.028324008,0.031609893,-1.0762,-0.019,-0.3472,1.1292,-1.8005,-1.1292
0.032619118,0.034912944,-1.0762,-0.019,-0.3472,1.1292,-1.8005,-1.1292
0.035918116,0.038828015,-1.0762,-0.019,-0.3472,0.9003,-1.8158,-0.8698
0.039902091,0.042272925,-1.0762,-0.019,-0.3472,0.9003,-1.8158,-0.8698
0.044689059,0.047464013,-1.0764,-0.0168,-0.354,0.9003,-1.8158,-0.8698
0.05016005,0.052451968,-1.0764,-0.0168,-0.354,0.5951,-1.77,-0.9918
0.053278088,0.055713057,-1.0764,-0.0168,-0.354,0.5951,-1.77,-0.9918
0.056233048,0.059749961,-1.0764,-0.0168,-0.354,1.1444,-1.5869,-0.9308
0.06094706,0.063840985,-1.0764,-0.0159,-0.3528,1.1444,-1.5869,-0.9308
0.065578103,0.067865014,-1.0752,-0.0159,-0.3528,1.1444,-1.5869,-0.9308
0.069538951,0.072461962,-1.0752,-0.0159,-0.3528,0.9766,-1.9836,-0.7629
0.073473096,0.076366067,-1.0752,-0.0159,-0.3528,0.9766,-1.9836,-0.7629
0.077886939,0.080237031,-1.0752,-0.0159,-0.3528,0.9766,-1.9836,-0.7629
0.081337094,0.084230065,-1.0752,-0.0159,-0.354,1.0376,-2.1362,-0.9613
0.08533895,0.087634921,-1.073,-0.0095,-0.354,1.0376,-2.1362,-0.9613
0.089400887,0.093730092,-1.073,-0.0095,-0.354,0.5341,-1.9684,-0.7935
0.094893098,0.097185015,-1.073,-0.0095,-0.354,0.5341,-1.9684,-0.7935
0.098280072,0.101276993,-1.073,-0.0095,-0.354,0.5341,-1.9684,-0.7935
0.102417111,0.104718089,-1.0737,-0.0144,-0.3496,0.4578,-1.7242,-1.4343
0.105699897,0.108086943,-1.0737,-0.0144,-0.3496,0.4578,-1.7242,-1.4343
0.108949065,0.113443017,-1.0737,-0.0144,-0.3496,0.4578,-1.7242,-1.6479
0.114409089,0.11670506,-1.0737,-0.0144,-0.3496,0.1831,-2.1057,-1.6479
0.118302941,0.120662093,-1.0737,-0.0144,-0.3496,0.1831,-2.1057,-1.6479
0.121842026,0.12413609,-1.0737,-0.0142,-0.3496,0.1831,-2.1057,-1.6479
0.125137925,0.127431988,-1.0764,-0.0142,-0.3496,0.6714,-2.1973,-1.4038
0.128584981,0.130931019,-1.0764,-0.0142,-0.3496,0.6714,-2.1973,-1.4038
0.131811976,0.134105086,-1.0764,-0.0142,-0.3496,0.6714,-2.1973,-1.4038
0.134950041,0.137242913,-1.0764,-0.0142,-0.3496,1.0681,-2.0294,-1.5869
0.138052106,0.140508055,-1.0764,-0.0142,-0.3496,1.0681,-2.0294,-1.5869
0.141387105,0.143840909,-1.0764,-0.0142,-0.3567,1.0681,-2.0294,-1.5869
0.144677043,0.147101998,-1.0769,-0.0125,-0.3567,0.7172,-2.0142,-1.8768
0.147918105,0.150355935,-1.0769,-0.0125,-0.3567,0.7172,-2.0142,-1.8768
0.151219964,0.153643012,-1.0769,-0.0125,-0.3567,0.7172,-2.0142,-1.8768
0.154471039,0.156896949,-1.0769,-0.0125,-0.3567,0.7172,-2.0142,-1.8768
0.157776951,0.160165906,-1.0769,-0.0125,-0.3567,0.7477,-2.243,-1.9531
0.161160111,0.163462996,-1.0769,-0.0125,-0.3567,0.7477,-2.243,-1.9531
0.164231896,0.166539073,-1.072,-0.0186,-0.3423,0.7477,-2.243,-1.9531
0.167409062,0.169961095,-1.072,-0.0186,-0.3423,1.0681,-1.8463,-2.0905
0.170472979,0.172922015,-1.072,-0.0186,-0.3423,1.0681,-1.8463,-2.0905
0.173709988,0.176125884,-1.072,-0.0186,-0.3423,1.0681,-1.8463,-2.0905
0.177003979,0.179418921,-1.072,-0.0186,-0.3423,1.0681,-1.9073,-2.121
0.180291056,0.182583928,-1.072,-0.0186,-0.3423,1.4801,-1.9073,-2.121
0.183409095,0.185707926,-1.0737,-0.0173,-0.3416,1.4801,-1.9073,-2.121
0.186554074,0.188850045,-1.0737,-0.0173,-0.3416,1.4801,-1.9073,-2.121
0.189782023,0.192205071,-1.0737,-0.0173,-0.3416,1.4343,-2.3346,-2.4109
0.193081021,0.195505023,-1.0737,-0.0173,-0.3416,1.4343,-2.3346,-2.4109
0.196281075,0.198703885,-1.0737,-0.0173,-0.3416,1.4343,-2.3346,-2.4109
0.199595093,0.201891064,-1.0737,-0.0173,-0.3416,1.2512,-2.3956,-2.4109
0.202765107,0.205066085,-1.0757,-0.0195,-0.3491,1.2512,-2.3956,-2.4109
0.205879092,0.20817697,-1.0757,-0.0195,-0.3491,1.2512,-2.3956,-2.4109
0.208987117,0.211546063,-1.0757,-0.0195,-0.3491,1.2512,-2.3956,-2.533
0.21231091,0.214608073,-1.0757,-0.0195,-0.3491,1.2512,-2.2583,-2.533
0.215422988,0.217723012,-1.0757,-0.0195,-0.3491,1.2512,-2.2583,-2.533
0.218571067,0.220881104,-1.0757,-0.0195,-0.3491,1.2512,-2.2583,-2.533
0.221695065,0.223996997,-1.0757,-0.0195,-0.3503,1.1444,-1.9379,-2.7924
0.224860072,0.22716105,-1.0762,-0.019,-0.3503,1.1444,-1.9379,-2.7924
0.228001952,0.230377078,-1.0762,-0.019,-0.3503,1.1444,-1.9379,-2.7924
0.231150031,0.233580947,-1.0762,-0.019,-0.3503,1.1444,-1.9379,-2.3346
0.234463095,0.236887097,-1.0762,-0.019,-0.3503,1.4954,-2.4567,-2.3346
0.237760901,0.240193009,-1.0762,-0.019,-0.3503,1.4954,-2.4567,-2.3346
0.241018891,0.243449092,-1.0762,-0.019,-0.3503,1.4954,-2.4567,-2.3346
0.244272113,0.246696114,-1.0776,-0.0176,-0.353,1.1749,-2.4261,-2.4872
0.247542977,0.250265956,-1.0776,-0.0176,-0.353,1.1749,-2.4261,-2.4872
0.251139998,0.255144,-1.0776,-0.0176,-0.353,1.1749,-2.4261,-2.4872
0.256952882,0.259869933,-1.0776,-0.0176,-0.353,0.9155,-2.5787,-2.3041
0.260382056,0.262683987,-1.0776,-0.0176,-0.353,0.9155,-2.5787,-2.3041
0.263553977,0.265843033,-1.0779,-0.0271,-0.3486,0.9155,-2.5787,-2.3041
0.266694903,0.268992066,-1.0779,-0.0271,-0.3486,1.0529,-2.3193,-2.0752
0.269888043,0.272184968,-1.0779,-0.0271,-0.3486,1.0529,-2.3193,-2.0752
0.273044944,0.275339007,-1.0779,-0.0271,-0.3486,1.0529,-2.3193,-2.0752
0.276195883,0.278502106,-1.0779,-0.0271,-0.3486,1.236,-2.655,-2.1515
0.279301047,0.281595111,-1.0779,-0.0271,-0.3486,1.236,-2.655,-2.1515
0.282431006,0.28472507,-1.0779,-0.022,-0.345,1.236,-2.655,-2.1515
0.285561919,0.287988066,-1.0791,-0.022,-0.345,1.236,-2.655,-1.9989
0.288838982,0.291195035,-1.0791,-0.022,-0.345,1.4191,-2.6855,-1.9989
0.292019963,0.294316888,-1.0791,-0.022,-0.345,1.4191,-2.6855,-1.9989
0.295159936,0.297526002,-1.0791,-0.022,-0.345,1.4191,-2.6855,-1.9989
0.298337102,0.300670027,-1.0791,-0.022,-0.345,1.3885,-2.1515,-1.8768
0.30162704,0.303919911,-1.0791,-0.022,-0.345,1.3885,-2.1515,-1.8768
0.304787993,0.307166934,-1.0771,-0.0234,-0.343,1.3885,-2.1515,-1.8768
0.307973027,0.310447097,-1.0771,-0.0234,-0.343,1.3885,-1.9073,-1.7242
0.311281085,0.313577056,-1.0771,-0.0234,-0.343,0.9613,-1.9073,-1.7242
0.314427018,0.316716075,-1.0771,-0.0234,-0.343,0.9613,-1.9073,-1.7242
0.317514062,0.319990992,-1.0771,-0.0234,-0.343,0.9613,-1.9073,-1.7242
0.32080996,0.323104977,-1.0771,-0.0234,-0.343,1.5106,-2.2125,-1.8158
0.323918938,0.326211095,-1.0779,-0.0247,-0.3369,1.5106,-2.2125,-1.8158
0.327063918,0.329428076,-1.0779,-0.0247,-0.3369,1.5106,-2.2125,-1.8158
0.329945922,0.332248091,-1.0779,-0.0247,-0.3369,1.1749,-1.9836,-1.5259
0.333071112,0.335358977,-1.0779,-0.0247,-0.3369,1.1749,-1.9836,-1.5259
0.336213946,0.338507056,-1.0779,-0.0247,-0.3369,1.1749,-1.9836,-1.5259
0.339311003,0.341608882,-1.0779,-0.0247,-0.3369,1.1749,-1.9836,-1.5259
0.342445969,0.344737887,-1.0779,-0.0239,-0.3425,0.9613,-1.7853,-1.5259
0.345596909,0.347885012,-1.0706,-0.0239,-0.3425,0.9613,-1.7853,-1.5259
0.348759055,0.351235032,-1.0706,-0.0239,-0.3425,0.9613,-1.7853,-1.5259
0.352085948,0.354389071,-1.0706,-0.0239,-0.3425,0.9003,-1.8463,-1.1597
0.356881022,0.359585881,-1.0706,-0.0239,-0.3425,0.9003,-1.8463,-1.1597
0.360473036,0.364551902,-1.0706,-0.0239,-0.3425,0.9003,-1.8463,-1.77
0.365461945,0.368322968,-1.0752,-0.0266,-0.3445,1.0071,-1.7242,-1.77
0.369306922,0.371687054,-1.0752,-0.0266,-0.3445,1.0071,-1.7242,-1.77
0.372692942,0.374992013,-1.0752,-0.0266,-0.3445,1.0071,-1.7242,-1.5106
0.377236008,0.379541039,-1.0752,-0.0266,-0.3445,1.2817,-1.9531,-1.5106
0.380647063,0.382948994,-1.0752,-0.0266,-0.3445,1.2817,-1.9531,-1.5106
0.383971095,0.386268973,-1.0835,-0.0215,-0.3462,1.2817,-1.9531,-1.6785
0.387138009,0.38954103,-1.0835,-0.0215,-0.3462,1.236,-1.9226,-1.6785
0.390392899,0.392687916,-1.0835,-0.0215,-0.3462,1.236,-1.9226,-1.6785
0.393531918,0.395822882,-1.0835,-0.0215,-0.3462,1.236,-1.9226,-1.6785
0.396663069,0.398961901,-1.0835,-0.0215,-0.3462,1.0681,-2.3193,-1.77
0.400072932,0.402363896,-1.0835,-0.0215,-0.3462,1.0681,-2.3193,-1.77
0.403221965,0.405521989,-1.0859,-0.0208,-0.3457,1.0681,-2.3193,-1.77
0.406382918,0.408676028,-1.0859,-0.0208,-0.3457,1.2207,-2.3499,-2.2888
0.409524083,0.411814093,-1.0859,-0.0208,-0.3457,1.2207,-2.3499,-2.2888
0.412685036,0.41498506,-1.0859,-0.0208,-0.3457,1.2207,-2.3499,-2.2888
0.415800929,0.418094039,-1.0859,-0.0208,-0.3457,1.2207,-2.3499,-2.2888
0.418863892,0.421212077,-1.0859,-0.0208,-0.3457,1.1902,-2.4719,-2.0294
0.422089934,0.424389958,-1.0859,-0.0208,-0.3457,1.1902,-2.4719,-2.0294
0.425162911,0.427452922,-1.0815,-0.0198,-0.3467,1.1902,-2.4719,-2.0294
0.428279996,0.430635094,-1.0815,-0.0198,-0.3467,1.236,-2.3193,-2.2278
0.431465029,0.433759093,-1.0815,-0.0198,-0.3467,1.236,-2.3193,-2.2278
0.434567094,0.436863064,-1.0815,-0.0198,-0.3467,1.236,-2.3193,-2.2278
0.437678933,0.439987063,-1.0815,-0.0198,-0.3467,1.236,-2.3193,-2.2278
0.440847993,0.443143964,-1.0815,-0.0198,-0.3467,1.1292,-2.1362,-2.5024
0.444043994,0.446338057,-1.0803,-0.0208,-0.3403,1.1292,-2.1362,-2.5024
0.447153926,0.449614882,-1.0803,-0.0208,-0.3403,1.1292,-2.1362,-2.5024
0.450483918,0.452860951,-1.0803,-0.0208,-0.3403,0.7935,-1.9684,-2.8687
0.453730941,0.45602405,-1.0803,-0.0208,-0.3403,0.7935,-1.9684,-2.8687
0.456863045,0.459157109,-1.0803,-0.0208,-0.3403,0.7935,-1.9684,-2.8687
0.460245013,0.462541938,-1.0803,-0.0208,-0.3403,0.7935,-1.9684,-3.2043
0.463343978,0.465635895,-1.0774,-0.0325,-0.3472,0.3967,-2.0294,-3.2043
0.46649611,0.468788027,-1.0774,-0.0325,-0.3472,0.3967,-2.0294,-3.2043
0.469804883,0.472102999,-1.0774,-0.0325,-0.3472,0.3967,-2.0294,-3.2043
0.47291696,0.476297021,-1.0774,-0.0325,-0.3472,0.885,-2.4567,-2.9755
0.477172017,0.479540944,-1.0774,-0.0325,-0.3472,0.885,-2.4567,-2.9755
0.480393052,0.482694983,-1.0774,-0.0325,-0.3472,0.885,-2.4567,-2.9755
0.483562112,0.485855937,-1.0767,-0.0305,-0.3508,1.2817,-2.5177,-3.1281
0.486662984,0.488958001,-1.0767,-0.0305,-0.3508,1.2817,-2.5177,-3.1281
0.48982799,0.492210984,-1.0767,-0.0305,-0.3508,1.2817,-2.5177,-3.1281
0.493053078,0.495343089,-1.0767,-0.0305,-0.3508,1.2817,-2.5177,-3.2806
0.49616611,0.498463034,-1.0767,-0.0305,-0.3508,0.9918,-2.2125,-3.2806
0.499338031,0.501875043,-1.0767,-0.0305,-0.3508,0.9918,-2.2125,-3.2806
0.502755999,0.505046963,-1.0767,-0.0305,-0.3472,0.9918,-2.2125,-3.2806
0.505869031,0.508171916,-1.0808,-0.0205,-0.3472,1.1902,-2.3651,-3.2959
0.508941054,0.511309981,-1.0808,-0.0205,-0.3472,1.1902,-2.3651,-3.2959
0.512158036,0.514459967,-1.0808,-0.0205,-0.3472,1.1902,-2.3651,-3.2959
0.515325904,0.517624974,-1.0808,-0.0205,-0.3472,1.4038,-2.3651,-3.7842
0.518485903,0.520954966,-1.0808,-0.0205,-0.3472,1.4038,-2.3651,-3.7842
0.521818995,0.524126887,-1.0808,-0.0205,-0.3472,1.4038,-2.3651,-3.7842
0.524890065,0.527182936,-1.0825,-0.0273,-0.3367,1.4038,-2.3651,-3.7842
0.528045058,0.530434012,-1.0825,-0.0273,-0.3367,1.3275,-2.3193,-3.6774
0.531253934,0.533558011,-1.0825,-0.0273,-0.3367,1.3275,-2.3193,-3.6774
0.534387946,0.536687016,-1.0825,-0.0273,-0.3367,1.3275,-2.3193,-3.6774
0.53750503,0.539857983,-1.0825,-0.0273,-0.3367,0.8392,-2.0447,-4.0283
0.540628075,0.542929053,-1.0825,-0.0273,-0.3367,0.8392,-2.0447,-4.0283
0.543758034,0.546054959,-1.0737,-0.0383,-0.3347,0.8392,-2.0447,-4.0283
0.546922087,0.549230933,-1.0737,-0.0383,-0.3347,0.8392,-2.0447,-0.1221
0.550181985,0.552476048,-1.0737,-0.0383,-0.3347,0.9766,-1.9379,-3.54
0.553341984,0.555802941,-1.0737,-0.0383,-0.3347,0.9766,-1.9379,-3.54
0.556616902,0.558910966,-1.0737,-0.0383,-0.3347,0.9766,-1.9379,-3.54
0.559991955,0.562289118,-1.0737,-0.0383,-0.3347,0.7019,-2.1973,-3.4943
0.563172936,0.565792918,-1.0737,-0.0398,-0.344,0.7019,-2.1973,-3.4943
0.566309094,0.568602919,-1.074,-0.0398,-0.344,0.7019,-2.1973,-3.4943
0.569373965,0.571669936,-1.074,-0.0398,-0.344,0.7019,-2.1973,-3.0365
0.572517991,0.574811101,-1.074,-0.0398,-0.344,1.0071,-2.243,-3.0365
0.575627923,0.577920079,-1.074,-0.0398,-0.344,1.0071,-2.243,-3.0365
0.578816056,0.581117034,-1.074,-0.0398,-0.344,1.0071,-2.243,-3.0365
0.581987977,0.584288001,-1.074,-0.0398,-0.344,1.0529,-2.5177,-3.1586
0.585094094,0.587392926,-1.0811,-0.0339,-0.3394,1.0529,-2.5177,-3.1586
0.588261008,0.590561032,-1.0811,-0.0339,-0.3394,1.0529,-2.5177,-3.1586
0.591436982,0.593726992,-1.0811,-0.0339,-0.3394,1.0529,-2.6398,-2.8229
0.594544053,0.596838116,-1.0811,-0.0339,-0.3394,0.7629,-2.6398,-2.8229
0.597612977,0.599904895,-1.0811,-0.0339,-0.3394,0.7629,-2.6398,-2.8229
0.600782036,0.603078007,-1.0811,-0.0339,-0.3394,0.7629,-2.6398,-2.8229
0.603839993,0.60613811,-1.0742,-0.0374,-0.335,0.7629,-2.594,-2.7924
0.60694611,0.609407067,-1.0742,-0.0374,-0.335,0.7629,-2.594,-2.7924
0.610257029,0.612551093,-1.0742,-0.0374,-0.335,0.7629,-2.594,-2.7924
0.613382935,0.615682006,-1.0742,-0.0374,-0.335,0.6714,-2.5787,-2.533
0.616507888,0.618801951,-1.0742,-0.0374,-0.335,0.6714,-2.5787,-2.533
0.619840026,0.62213099,-1.0742,-0.0374,-0.335,0.6714,-2.5787,-2.533
0.623015046,0.625306964,-1.0742,-0.0374,-0.3401,0.6714,-2.5787,-2.533
0.626143098,0.628440976,-1.0781,-0.0374,-0.3401,0.3967,-2.3041,-2.6398
0.629355073,0.631648898,-1.0781,-0.0374,-0.3401,0.3967,-2.3041,-2.6398
0.632480979,0.634774089,-1.0781,-0.0374,-0.3401,0.3967,-2.3041,-2.6398
0.635621905,0.637918114,-1.0781,-0.0374,-0.3401,0.824,-2.1667,-2.4719
0.638737082,0.641168952,-1.0781,-0.0374,-0.3401,0.824,-2.1667,-2.4719
0.641996979,0.644291997,-1.0781,-0.0374,-0.3401,0.824,-2.1667,-2.4719
0.645156979,0.647450089,-1.0803,-0.0356,-0.3367,0.824,-2.1667,-2.4719
0.648320079,0.650807976,-1.0803,-0.0356,-0.3367,0.6409,-2.3499,-2.7313
0.651621937,0.653914094,-1.0803,-0.0356,-0.3367,0.6409,-2.3499,-2.7313
0.654941916,0.658112883,-1.0803,-0.0356,-0.3367,0.6409,-2.3499,-2.7313
0.658990979,0.662536978,-1.0803,-0.0356,-0.3367,0.5493,-2.4414,-2.594
0.66336596,0.665664077,-1.0803,-0.0356,-0.3354,0.5493,-2.4414,-2.594
0.666534066,0.66883099,-1.084,-0.0408,-0.3354,0.5493,-2.4414,-2.594
0.669765114,0.67205894,-1.084,-0.0408,-0.3354,0.7935,-2.0599,-2.533
0.672890067,0.675186991,-1.084,-0.0408,-0.3354,0.7935,-2.0599,-2.533
0.67602098,0.67832005,-1.084,-0.0408,-0.3354,0.7935,-2.0599,-2.533
0.679144025,0.681444049,-1.084,-0.0408,-0.3354,0.7782,-2.243,-2.655
0.682319998,0.684616923,-1.084,-0.0408,-0.3354,0.7782,-2.243,-2.655
0.685434937,0.687727093,-1.0803,-0.0386,-0.332,0.7782,-2.243,-2.655
0.688537001,0.690872073,-1.0803,-0.0386,-0.332,0.7782,-2.243,-2.655
0.691753983,0.694047093,-1.0803,-0.0386,-0.332,0.6256,-2.1667,-2.3346
0.694918036,0.697213053,-1.0803,-0.0386,-0.332,0.6256,-2.1667,-2.3346
0.698054909,0.700352072,-1.0803,-0.0386,-0.332,0.6256,-2.1667,-2.3346
0.701176047,0.703467965,-1.0803,-0.0386,-0.332,0.9003,-1.8463,-2.2278
0.704285025,0.709401011,-1.0767,-0.0454,-0.3354,0.9003,-1.8463,-2.2278
0.710296988,0.71530497,-1.0767,-0.0454,-0.3354,0.9003,-1.9226,-2.1973
0.716134906,0.718439936,-1.0767,-0.0454,-0.3354,0.8698,-1.9226,-2.1973
0.719380974,0.721670985,-1.0767,-0.0454,-0.3354,0.8698,-1.9226,-2.1973
0.722669959,0.726259112,-1.0767,-0.0439,-0.3381,0.4272,-2.2888,-2.3499
0.727368951,0.73032391,-1.0723,-0.0439,-0.3381,0.4272,-2.2888,-2.3499
0.731819033,0.734532952,-1.0723,-0.0439,-0.3381,0.4272,-2.2888,-2.3499
0.736938119,0.739291072,-1.0723,-0.0439,-0.3381,0.6714,-2.1515,-2.2278
0.740460038,0.742754101,-1.0723,-0.0439,-0.3381,0.6714,-2.1515,-2.2278
0.74397695,0.746275067,-1.0723,-0.0374,-0.3325,0.6714,-2.1057,-2.0599
0.747197032,0.751447081,-1.0803,-0.0374,-0.3325,0.8545,-2.1057,-2.0599
0.752428889,0.754723906,-1.0803,-0.0374,-0.3325,0.8545,-2.1057,-2.0599
0.755719065,0.758012891,-1.0803,-0.0374,-0.3325,0.5493,-1.9531,-2.3804
0.76007998,0.763913035,-1.0803,-0.0374,-0.3325,0.5493,-1.9531,-2.3804
0.765297055,0.768701911,-1.082,-0.0442,-0.3306,0.9308,-1.7548,-2.4872
0.76967895,0.772127986,-1.082,-0.0442,-0.3306,0.9308,-1.7548,-2.4872
0.772646069,0.77642405,-1.082,-0.0442,-0.3306,0.9308,-1.7548,-2.4872
0.778296113,0.780639052,-1.082,-0.0442,-0.3306,0.7324,-1.7853,-2.2125
0.781587004,0.784992099,-1.082,-0.0442,-0.3306,0.7324,-1.7853,-2.2125
0.786163926,0.788664937,-1.0752,-0.0449,-0.3254,0.7324,-1.7853,-2.2125
0.789706111,0.792225003,-1.0752,-0.0449,-0.3254,1.2207,-1.5717,-2.0447
0.793328881,0.795626044,-1.0752,-0.0449,-0.3254,1.2207,-1.5717,-2.0447
0.79658401,0.798878073,-1.0752,-0.0449,-0.3254,1.2207,-1.5717,-2.0447
0.800665974,0.802959084,-1.0752,-0.0449,-0.3254,0.9155,-1.5106,-2.1973
0.803902983,0.807630896,-1.0752,-0.042,-0.345,0.9155,-1.5106,-2.1973
0.80915296,0.811669945,-1.0774,-0.042,-0.345,0.9155,-1.3428,-2.121
0.813147902,0.815445065,-1.0774,-0.042,-0.345,0.9613,-1.3428,-2.121
0.817484975,0.82039392,-1.0774,-0.042,-0.345,0.9613,-1.3428,-2.121
0.821520924,0.823826909,-1.0774,-0.042,-0.345,1.3275,-1.3885,-1.6174
0.825496077,0.827798962,-1.0833,-0.0391,-0.335,1.3275,-1.3885,-1.6174
0.828795075,0.831102013,-1.0833,-0.0391,-0.335,1.3275,-1.3885,-1.6174
0.832136988,0.834442019,-1.0833,-0.0391,-0.335,1.0986,-1.3123,-1.6174
0.835370898,0.837669015,-1.0833,-0.0391,-0.335,1.0986,-1.3123,-1.6174
0.838503003,0.84090507,-1.0833,-0.0391,-0.335,1.0986,-1.3123,-1.6174
0.841767907,0.844302058,-1.0833,-0.0391,-0.335,1.0986,-1.3123,-1.9684
0.844812989,0.847253918,-1.0776,-0.0442,-0.3311,0.9308,-1.3733,-1.9684
0.848105073,0.850575089,-1.0776,-0.0442,-0.3311,0.9308,-1.3733,-1.9684
0.851448893,0.853838086,-1.0776,-0.0442,-0.3311,0.9308,-1.3733,-1.9684
0.854682088,0.857071042,-1.0776,-0.0442,-0.3311,0.9155,-1.297,-1.7853
0.857847094,0.860482096,-1.0776,-0.0442,-0.3311,0.9155,-1.297,-1.7853
0.860999942,0.864714026,-1.0776,-0.0442,-0.3311,0.9155,-1.297,-1.7853
0.867034077,0.869974971,-1.0762,-0.0505,-0.3318,1.0071,-1.6174,-1.8158
0.870745063,0.873041033,-1.0762,-0.0505,-0.3318,1.0071,-1.6174,-1.8158
0.873906016,0.876203894,-1.0762,-0.0505,-0.3318,1.0071,-1.6174,-1.8158
0.877034068,0.879345059,-1.0762,-0.0505,-0.3318,1.2207,-1.4954,-1.77
0.880101084,0.88239491,-1.0762,-0.0505,-0.3318,1.2207,-1.4954,-1.77
0.883262992,0.885841012,-1.0762,-0.0505,-0.3318,1.2207,-1.4954,-1.77
0.886834025,0.889125943,-1.0762,-0.0518,-0.3376,1.0376,-1.3733,-1.5717
0.890083909,0.892377019,-1.0762,-0.0518,-0.3376,1.0376,-1.3733,-1.5717
0.893216967,0.895506978,-1.0762,-0.0518,-0.3376,1.0376,-1.3733,-1.5717
0.896366954,0.89865911,-1.0762,-0.0518,-0.3376,1.0376,-1.3733,-1.2207
0.899470925,0.901769995,-1.0762,-0.0518,-0.3376,1.1749,-1.3733,-1.2207
0.902592063,0.904884934,-1.0762,-0.0518,-0.3376,1.1749,-1.3733,-1.2207
0.905706048,0.907991051,-1.0767,-0.0452,-0.3328,1.1749,-1.3733,-1.2207
0.908860087,0.911341071,-1.0767,-0.0452,-0.3328,1.297,-1.4954,-1.1902
0.912161946,0.914457917,-1.0767,-0.0452,-0.3328,1.297,-1.4954,-1.1902
0.915291905,0.917584061,-1.0767,-0.0452,-0.3328,1.297,-1.4954,-1.1902
0.918407082,0.921040892,-1.0767,-0.0452,-0.3328,1.1597,-1.7853,-1.2054
0.92188704,0.924183011,-1.0767,-0.0452,-0.3328,1.1597,-1.7853,-1.2054
0.924997925,0.927286982,-1.0791,-0.0508,-0.3296,1.1597,-1.7853,-1.2054
0.928152919,0.930517077,-1.0791,-0.0508,-0.3296,1.1597,-1.7853,-1.2054
0.931361079,0.93365705,-1.0791,-0.0508,-0.3296,0.6256,-1.4038,-1.5106
0.934460997,0.936763882,-1.0791,-0.0508,-0.3296,0.6256,-1.4038,-1.5106
0.937598109,0.939937949,-1.0791,-0.0508,-0.3296,0.6256,-1.4038,-1.5106
0.940700888,0.943007111,-1.0791,-0.0508,-0.3296,0.6409,-1.4801,-1.2207
0.943852067,0.946153998,-1.0791,-0.0508,-0.3296,0.6409,-1.4801,-1.2207
0.946962952,0.949332118,-1.0779,-0.0532,-0.3298,0.6409,-1.4801,-1.2207
0.950208068,0.9525069,-1.0779,-0.0532,-0.3298,0.6409,-1.4801,-1.2207
0.95334208,0.955637097,-1.0779,-0.0532,-0.3298,0.9613,-1.4801,-0.946
0.95641005,0.958705067,-1.0779,-0.0532,-0.3298,0.9613,-1.4801,-0.946
0.959648966,0.961943984,-1.0779,-0.0532,-0.3298,0.9613,-1.4801,-0.946
0.964494109,0.967276931,-1.0779,-0.0535,-0.3274,0.9308,-1.4954,-0.3357
0.968145966,0.970486045,-1.0776,-0.0535,-0.3274,0.9308,-1.4954,-0.3357
0.97133696,0.973631024,-1.0776,-0.0535,-0.3274,0.9308,-1.4954,-0.3357
0.974494099,0.976795077,-1.0776,-0.0535,-0.3274,0.9766,-1.3428,-0.061
0.977614999,0.979913115,-1.0776,-0.0535,-0.3274,0.9766,-1.3428,-0.061
0.980734944,0.983034014,-1.0776,-0.0535,-0.3274,0.9766,-1.3428,-0.061
0.983892083,0.986189007,-1.0776,-0.0535,-0.3274,0.9766,-1.5564,0.1373
0.987033963,0.989329934,-1.0806,-0.0471,-0.3318,0.7019,-1.5564,0.1373
0.990186095,0.992489934,-1.0806,-0.0471,-0.3318,0.7019,-1.5564,0.1373
0.993351102,0.995643973,-1.0806,-0.0471,-0.3318,0.7019,-1.5564,0.1373
0.996507048,0.998798012,-1.0806,-0.0471,-0.3318,0.1831,-1.1597,0.1831
0.999717116,1.002011895,-1.0806,-0.0471,-0.3318,0.1831,-1.1597,0.1831
1.002858042,1.005145907,-1.0806,-0.0471,-0.3318,0.1831,-1.1597,0.1831
1.006004929,1.008303046,-1.0825,-0.0422,-0.3362,-0.1526,-1.5259,0.3357
1.009137988,1.011463046,-1.0825,-0.0422,-0.3362,-0.1526,-1.5259,0.3357
1.012318015,1.014609933,-1.0825,-0.0422,-0.3362,-0.1526,-1.5259,0.3357
1.015468955,1.017766118,-1.0825,-0.0422,-0.3362,-0.1526,-1.5259,0.3357
1.018581986,1.020985961,-1.0825,-0.0422,-0.3362,-0.1678,-1.6327,0.1221
1.021937012,1.024226069,-1.0825,-0.0422,-0.3362,-0.1678,-1.6327,0.1221
1.025083899,1.027382016,-1.0825,-0.041,-0.3347,-0.1678,-1.6327,0.1221
1.02819407,1.030501008,-1.0789,-0.041,-0.3347,0.6866,-1.3123,-0.2136
1.03132689,1.033623099,-1.0789,-0.041,-0.3347,0.6866,-1.3123,-0.2136
1.034443974,1.036734938,-1.0789,-0.041,-0.3347,0.6866,-1.3123,-0.2136
1.037599921,1.039938092,-1.0789,-0.041,-0.3347,0.6866,-1.3123,-0.2136
1.040813088,1.043113112,-1.0789,-0.041,-0.3347,0.6714,-1.4496,-0.4883
1.043944955,1.046234965,-1.0789,-0.041,-0.3347,0.6714,-1.4496,-0.4883
1.047093987,1.049389004,-1.085,-0.0393,-0.3315,0.6714,-1.4496,-0.4883
1.05016005,1.052458882,-1.085,-0.0393,-0.3315,0.5798,-1.4954,-0.4425
1.053321957,1.055683016,-1.085,-0.0393,-0.3315,0.5798,-1.4954,-0.4425
1.056203007,1.058513999,-1.085,-0.0393,-0.3315,0.5798,-1.4954,-0.4425
1.059486985,1.061782002,-1.085,-0.0393,-0.3315,0.5798,-1.4954,-0.7019
1.062590956,1.06488502,-1.085,-0.0393,-0.3315,0.5951,-1.4191,-0.7019
1.06934011,1.072723031,-1.0808,-0.0403,-0.3318,0.5951,-1.4191,-0.7019
1.0735749,1.076135039,-1.0808,-0.0403,-0.3318,0.4883,-1.8158,-1.0071
1.077001929,1.079337954,-1.0808,-0.0403,-0.3318,0.4883,-1.8158,-1.0071
1.080211997,1.082511067,-1.0808,-0.0403,-0.3318,0.4883,-1.8158,-1.0071
1.083268046,1.085559964,-1.0808,-0.0403,-0.3318,0.6714,-1.8616,-1.3885
1.086968064,1.090479016,-1.0798,-0.043,-0.3303,0.6714,-1.8616,-1.3885
1.092201113,1.094981074,-1.0798,-0.043,-0.3303,0.6714,-2.0447,-1.3733
1.097251057,1.099549889,-1.0798,-0.043,-0.3303,0.5035,-2.0447,-1.3733
1.100650906,1.102949023,-1.0798,-0.043,-0.3303,0.5035,-2.0447,-1.3733
1.104608893,1.106902957,-1.0798,-0.043,-0.3311,0.7172,-2.1515,-1.4038
1.107899069,1.110978007,-1.0776,-0.0442,-0.3311,0.7172,-2.1515,-1.4038
1.113294005,1.116112113,-1.0776,-0.0442,-0.3311,0.7172,-2.1515,-1.4038
1.117741942,1.120086074,-1.0776,-0.0442,-0.3311,0.9003,-2.243,-1.5869
1.121658921,1.123957038,-1.0776,-0.0442,-0.3311,0.9003,-2.243,-1.5869
1.12559092,1.127880931,-1.075,-0.0476,-0.3313,0.9003,-2.3193,-1.6479
1.129425883,1.131727099,-1.075,-0.0476,-0.3313,0.9003,-2.3193,-1.6479
1.132866025,1.135366082,-1.075,-0.0476,-0.3313,0.9003,-2.3193,-1.6479
1.137519002,1.141085028,-1.075,-0.0476,-0.3313,1.0834,-2.121,-1.4801
1.142233967,1.144534945,-1.075,-0.0476,-0.3313,1.0834,-2.121,-1.4801
1.146168112,1.148462891,-1.0774,-0.052,-0.3318,1.0834,-2.121,-1.4801
1.149608016,1.152538895,-1.0774,-0.052,-0.3318,0.7172,-1.9531,-1.4801
1.15467298,1.157663941,-1.0774,-0.052,-0.3318,0.7172,-1.9531,-1.4801
1.15882194,1.16118896,-1.0774,-0.052,-0.3318,0.5341,-1.8311,-1.5869
1.162114978,1.165801882,-1.0774,-0.052,-0.3318,0.5341,-1.8311,-1.5869
1.166803002,1.169104933,-1.0803,-0.0481,-0.3318,0.5341,-1.8311,-1.5869
1.1703161,1.172618031,-1.0803,-0.0481,-0.3318,0.2289,-1.9836,-1.2665
1.173478007,1.176399111,-1.0803,-0.0481,-0.3318,0.2289,-1.9836,-1.2665
1.178446889,1.181021094,-1.0803,-0.0481,-0.3318,0.2289,-1.9836,-1.2665
1.181908965,1.184197068,-1.0803,-0.0481,-0.3318,0.4578,-2.182,-1.5259
1.185299039,1.188729882,-1.0803,-0.051,-0.3347,0.4578,-2.182,-1.5259
1.191273093,1.194716096,-1.0808,-0.051,-0.3347,0.6866,-1.8158,-1.6022
1.195949912,1.198249936,-1.0808,-0.051,-0.3347,0.6866,-1.8158,-1.6022
1.199178099,1.201603055,-1.0808,-0.051,-0.3347,0.6866,-1.8158,-1.6022
1.20242393,1.204721093,-1.0808,-0.051,-0.3347,0.9613,-1.4496,-1.297
1.205525994,1.207899928,-1.0808,-0.0469,-0.3293,0.9613,-1.4496,-1.297
1.208768964,1.211196065,-1.0833,-0.0469,-0.3293,0.9613,-1.4496,-1.297
1.212046981,1.21434009,-1.0833,-0.0469,-0.3293,0.9613,-1.4496,-1.297
1.21509993,1.217482924,-1.0833,-0.0469,-0.3293,0.7782,-1.6479,-1.358
1.218351006,1.220665097,-1.0833,-0.0469,-0.3293,0.7782,-1.6479,-1.358
1.221484065,1.223779082,-1.0833,-0.0469,-0.3293,0.7782,-1.6479,-1.358
1.224635005,1.226962924,-1.0833,-0.0469,-0.3293,0.8698,-1.5564,-1.6632
1.227819085,1.230359912,-1.0786,-0.0474,-0.3291,0.8698,-1.5564,-1.6632
1.231226086,1.233877062,-1.0786,-0.0474,-0.3291,0.8698,-1.5564,-1.6632
1.234737038,1.237028002,-1.0786,-0.0474,-0.3291,0.473,-1.8921,-1.7395
1.237891078,1.240244984,-1.0786,-0.0474,-0.3291,0.473,-1.8921,-1.7395
1.241058945,1.243354916,-1.0786,-0.0474,-0.3291,0.473,-1.8921,-1.7395
1.244212031,1.246501088,-1.0786,-0.0474,-0.3291,0.473,-1.8921,-1.7395
1.247264981,1.249564051,-1.0806,-0.0474,-0.3296,0.5646,-2.0142,-1.6785
1.250420928,1.252714991,-1.0806,-0.0474,-0.3296,0.5646,-2.0142,-1.6785
1.253519892,1.255812049,-1.0806,-0.0474,-0.3296,0.5646,-2.0142,-1.6785
1.256636977,1.258933901,-1.0806,-0.0474,-0.3296,0.9308,-1.6327,-1.6937
1.259807944,1.2621001,-1.0806,-0.0474,-0.3296,0.9308,-1.6327,-1.6937
1.262958884,1.265248894,-1.0806,-0.0474,-0.3296,0.9308,-1.6327,-1.6937
1.26611197,1.268410086,-1.0835,-0.0493,-0.3313,0.9308,-1.6327,-1.6937
1.269535899,1.271911978,-1.0835,-0.0493,-0.3313,1.6632,-1.6327,-1.8158
1.272736907,1.275033116,-1.0835,-0.0493,-0.3313,1.6632,-1.6327,-1.8158
1.275893092,1.27819097,-1.0835,-0.0493,-0.3313,1.6632,-1.6327,-1.8158
1.278999924,1.281297087,-1.0835,-0.0493,-0.3313,1.4496,-1.7242,-2.0599
1.282056927,1.284350037,-1.0835,-0.0493,-0.3313,1.4496,-1.7242,-2.0599
1.285210967,1.287504077,-1.0835,-0.0493,-0.3279,1.4496,-1.7242,-2.0599
1.288303971,1.290667891,-1.0874,-0.0488,-0.3279,1.4496,-1.7242,-2.0599
1.291482091,1.293775916,-1.0874,-0.0488,-0.3279,1.5564,-1.6785,-2.3499
1.29461801,1.296910882,-1.0874,-0.0488,-0.3279,1.5564,-1.6785,-2.3499
1.297718882,1.300068021,-1.0874,-0.0488,-0.3279,1.5564,-1.6785,-2.3499
1.300880074,1.303172946,-1.0874,-0.0488,-0.3279,1.6785,-1.7548,-2.5787
1.30400002,1.306294083,-1.0874,-0.0488,-0.3279,1.6785,-1.7548,-2.5787
1.307112097,1.309409976,-1.0784,-0.0525,-0.3267,1.6785,-1.7548,-2.5787
1.310273051,1.312564969,-1.0784,-0.0525,-0.3267,1.6785,-1.7548,-2.6093
1.313376069,1.315667987,-1.0784,-0.0525,-0.3267,1.4496,-1.3123,-2.6093
1.316532016,1.318827033,-1.0784,-0.0525,-0.3267,1.4496,-1.3123,-2.6093
1.319868922,1.322168946,-1.0784,-0.0525,-0.3267,1.4496,-1.3123,-2.6093
1.322998881,1.325296998,-1.0784,-0.0525,-0.3267,1.5717,-1.358,-2.8229
1.326268077,1.328564048,-1.0737,-0.0549,-0.3225,1.5717,-1.358,-2.8229
1.329407096,1.331833005,-1.0737,-0.0549,-0.3225,1.5717,-1.358,-2.8229
1.332651972,1.335077882,-1.0737,-0.0549,-0.3225,1.5717,-1.8158,-2.594
1.335914969,1.338333964,-1.0737,-0.0549,-0.3225,1.77,-1.8158,-2.594
1.339131951,1.341456055,-1.0737,-0.0549,-0.3225,1.77,-1.8158,-2.594
1.342277884,1.344576955,-1.0737,-0.0549,-0.3225,1.77,-1.8158,-2.594
1.345341086,1.347638964,-1.0737,-0.0549,-0.3225,1.709,-1.7548,-2.4109
1.348494887,1.350874066,-1.0779,-0.0591,-0.3259,1.709,-1.7548,-2.4109
1.35175097,1.354044079,-1.0779,-0.0591,-0.3259,1.709,-1.7548,-2.4109
1.354875922,1.357168078,-1.0779,-0.0591,-0.3259,1.8768,-1.8005,-2.2736
1.35797894,1.360425114,-1.0779,-0.0591,-0.3259,1.8768,-1.8005,-2.2736
1.361292004,1.363587975,-1.0779,-0.0591,-0.3259,1.8768,-1.8005,-2.2736
1.364421963,1.366713881,-1.0779,-0.0591,-0.3259,1.8768,-1.8005,-2.2736
1.367518067,1.369906068,-1.0771,-0.061,-0.3276,1.8463,-1.4648,-2.4261
1.37075293,1.373046994,-1.0771,-0.061,-0.3276,1.8463,-1.4648,-2.4261
1.373856902,1.376154065,-1.0771,-0.061,-0.3276,1.8463,-1.4648,-2.4261
1.376969933,1.379314065,-1.0771,-0.061,-0.3276,1.7853,-1.6937,-2.1667
1.380159974,1.382453084,-1.0771,-0.061,-0.3276,1.7853,-1.6937,-2.1667
1.38331902,1.385755896,-1.0771,-0.061,-0.3276,1.7853,-1.6937,-2.1667
1.386561989,1.388853907,-1.083,-0.0637,-0.3274,1.7853,-1.6937,-2.0447
1.391734004,1.394560933,-1.083,-0.0637,-0.3274,1.2207,-1.6174,-2.0447
1.395423054,1.397717118,-1.083,-0.0637,-0.3274,1.2207,-1.6174,-2.0447
1.398546099,1.400888085,-1.083,-0.0637,-0.3274,0.7477,-1.2054,-1.8463
1.401730895,1.404022097,-1.083,-0.0637,-0.3274,0.7477,-1.2054,-1.8463
1.404852032,1.407139897,-1.083,-0.0637,-0.3274,0.7477,-1.2054,-1.8463
1.407997966,1.410302043,-1.0781,-0.0625,-0.3259,0.7477,-1.2054,-1.8463
1.411065936,1.413361907,-1.0781,-0.0625,-0.3259,0.5341,-1.1749,-1.6327
1.41418302,1.416483044,-1.0781,-0.0625,-0.3259,0.5341,-1.1749,-1.6327
1.417347073,1.41968596,-1.0781,-0.0625,-0.3259,0.5341,-1.1749,-1.6327
1.420510888,1.422799945,-1.0781,-0.0625,-0.3259,0.6256,-0.9155,-1.6327
1.423661112,1.42596209,-1.0781,-0.0625,-0.3259,0.6256,-0.9155,-1.6327
1.426768899,1.429062009,-1.0789,-0.0623,-0.3296,0.6256,-0.9155,-1.6327
1.429995894,1.432289004,-1.0789,-0.0623,-0.3296,0.6256,-0.9155,-1.6327
1.433121085,1.435416102,-1.0789,-0.0623,-0.3296,0.6714,-1.2054,-1.2817
1.43622005,1.438511967,-1.0789,-0.0623,-0.3296,0.6714,-1.2054,-1.2817
1.439483046,1.441780924,-1.0789,-0.0623,-0.3296,0.6714,-1.2054,-1.2817
1.442654013,1.444950938,-1.0789,-0.0623,-0.3296,0.3815,-1.1292,-0.8698
1.445792079,1.448082089,-1.0789,-0.0623,-0.3323,0.3815,-1.1292,-0.8698
1.448903918,1.451352954,-1.0818,-0.0613,-0.3323,0.3815,-1.1292,-0.8698
1.452190995,1.454486966,-1.0818,-0.0613,-0.3323,0.3815,-1.1292,-0.8087
1.45532,1.457614064,-1.0818,-0.0613,-0.3323,0.2136,-1.0681,-0.8087
1.458423972,1.46072495,-1.0818,-0.0613,-0.3323,0.2136,-1.0681,-0.8087
1.46173203,1.464024901,-1.0818,-0.0613,-0.3323,0.2136,-1.0681,-0.8087
1.464878916,1.467176079,-1.0818,-0.0613,-0.3323,0.3815,-1.0071,-0.4578
1.468051076,1.470352053,-1.0752,-0.0588,-0.3245,0.3815,-1.0071,-0.4578
1.471224904,1.473655104,-1.0752,-0.0588,-0.3245,0.3815,-1.0071,-0.4578
1.474527001,1.476818919,-1.0752,-0.0588,-0.3245,0.3815,-0.9918,-0.4425
1.477635979,1.480069041,-1.0752,-0.0588,-0.3245,0.1678,-0.9918,-0.4425
1.480847954,1.483260035,-1.0752,-0.0588,-0.3245,0.1678,-0.9918,-0.4425
1.484125018,1.488989949,-1.0752,-0.0588,-0.3245,0.6561,-0.8545,-0.5035
1.489926934,1.493509888,-1.0815,-0.0566,-0.3237,0.6561,-0.8545,-0.5035
1.494777083,1.499785065,-1.0815,-0.0566,-0.3237,0.4425,-0.7477,-0.7019
1.502055049,1.504970908,-1.0815,-0.0566,-0.3237,0.4425,-0.7477,-0.7019
1.506075024,1.508978963,-1.0815,-0.0566,-0.3281,0.4425,-0.7477,-0.6866
1.510234952,1.513609051,-1.0811,-0.0586,-0.3281,0.7019,-0.5493,-0.6866
1.5146209,1.516912102,-1.0811,-0.0586,-0.3281,0.7019,-0.5493,-0.6866
1.518044114,1.520342946,-1.0811,-0.0586,-0.3281,0.7019,-0.7172,-0.6561
1.521228909,1.523523926,-1.0811,-0.0586,-0.3281,0.7935,-0.7172,-0.6561
1.524337887,1.527186036,-1.0811,-0.0586,-0.3281,0.7935,-0.7172,-0.6561
1.528179049,1.530688882,-1.0815,-0.0583,-0.3372,0.7935,-0.7172,-0.5341
1.532461047,1.534763932,-1.0815,-0.0583,-0.3372,0.6866,-0.8392,-0.5341
1.536347031,1.538730025,-1.0815,-0.0583,-0.3372,0.6866,-0.8392,-0.5341
1.540425896,1.542715907,-1.0815,-0.0583,-0.3372,0.8392,-1.2817,-0.7629
1.544504046,1.547293067,-1.0815,-0.0583,-0.3372,0.8392,-1.2817,-0.7629
1.549014926,1.551313996,-1.0786,-0.0583,-0.3337,0.8392,-1.2817,-0.7629
1.55369699,1.555992007,-1.0786,-0.0583,-0.3337,0.5493,-1.0834,-0.6409
1.557153105,1.560538888,-1.0786,-0.0583,-0.3337,0.5493,-1.0834,-0.6409
1.561704039,1.563996911,-1.0786,-0.0583,-0.3337,0.5493,-1.0529,-1.0529
1.564885974,1.568910956,-1.0786,-0.0583,-0.3337,0.7629,-1.0529,-1.0529
1.570023894,1.57231605,-1.0774,-0.0613,-0.3279,0.7629,-1.0529,-1.0529
1.573429942,1.575724959,-1.0774,-0.0613,-0.3279,0.3967,-1.0986,-0.885
1.576551079,1.578842044,-1.0774,-0.0613,-0.3279,0.3967,-1.0986,-0.885
1.579774022,1.582198023,-1.0774,-0.0613,-0.3279,0.3967,-1.0986,-0.885
1.583730101,1.587570071,-1.0774,-0.0613,-0.3279,0.473,-1.358,-0.5493
1.589019894,1.592337966,-1.0764,-0.0559,-0.3293,0.473,-1.358,-0.5493
1.592857003,1.595708966,-1.0764,-0.0559,-0.3293,0.473,-1.358,-0.5493
1.596716046,1.599008918,-1.0764,-0.0559,-0.3293,0.5951,-1.3275,-0.2289
1.600226044,1.602604985,-1.0764,-0.0559,-0.3293,0.5951,-1.3275,-0.2289
1.604992032,1.607282996,-1.0764,-0.0559,-0.3293,0.5951,-1.3275,-0.5798
1.608164906,1.61115396,-1.0779,-0.0601,-0.3276,0.7324,-1.4038,-0.5798
1.612273097,1.614571929,-1.0779,-0.0601,-0.3276,0.7324,-1.4038,-0.5798
1.616876006,1.620453,-1.0779,-0.0601,-0.3276,0.5493,-1.2054,-0.4272
1.621559977,1.623866915,-1.0779,-0.0601,-0.3276,0.5493,-1.2054,-0.4272
1.624787926,1.628342986,-1.0779,-0.0601,-0.3276,0.5493,-1.2054,-0.4272
1.630066037,1.632357955,-1.084,-0.0559,-0.3298,0.1831,-1.1444,-0.473
1.633463978,1.636459946,-1.084,-0.0559,-0.3298,0.1831,-1.1444,-0.473
1.638613105,1.640919089,-1.084,-0.0559,-0.3298,0.3815,-0.946,-0.8392
1.642546057,1.644842982,-1.084,-0.0559,-0.3298,0.3815,-0.946,-0.8392
1.646072983,1.649094939,-1.084,-0.0559,-0.3298,0.3815,-0.946,-0.8392
1.650792002,1.653087973,-1.0806,-0.0615,-0.3281,0.1831,-1.0223,-0.9308
1.653984904,1.656643033,-1.0806,-0.0615,-0.3281,0.1831,-1.0223,-0.9308
1.657427907,1.659867882,-1.0806,-0.0615,-0.3281,0.1831,-1.0223,-0.9308
1.661655068,1.665201068,-1.0806,-0.0615,-0.3281,0.3357,-1.0986,-0.5646
1.666914105,1.66921103,-1.0806,-0.0615,-0.3323,0.3357,-1.0986,-0.5646
1.670432925,1.672916054,-1.0833,-0.0601,-0.3323,0.3357,-1.0986,-0.3967
1.67404592,1.676427006,-1.0833,-0.0601,-0.3323,0.412,-1.2817,-0.3967
1.676941991,1.679365992,-1.0833,-0.0601,-0.3323,0.412,-1.2817,-0.3967
1.680291056,1.682679057,-1.0833,-0.0601,-0.3323,0.412,-1.2817,-0.3967
1.683703065,1.685999989,-1.0833,-0.0601,-0.3323,0.3967,-1.4496,-0.3204
1.687496066,1.692172885,-1.0781,-0.0623,-0.324,0.3967,-1.4496,-0.3204
1.694461941,1.697136998,-1.0781,-0.0623,-0.324,0.3052,-1.1902,-0.1221
1.698866963,1.701242089,-1.0781,-0.0623,-0.324,0.3052,-1.1902,-0.1221
1.702182889,1.705939889,-1.0781,-0.0623,-0.324,0.3052,-1.1902,-0.2747
1.706882119,1.709638953,-1.0781,-0.0623,-0.3257,0.2289,-0.9613,-0.2747
1.71072495,1.713018059,-1.0776,-0.0579,-0.3257,0.2289,-0.9613,-0.2747
1.7140311,1.716755032,-1.0776,-0.0579,-0.3257,0.4425,-1.1139,-0.5341
1.718764901,1.721319079,-1.0776,-0.0579,-0.3257,0.4425,-1.1139,-0.5341
1.72220695,1.724667906,-1.0776,-0.0579,-0.3257,0.4425,-1.1139,-0.5341
1.726494908,1.729977965,-1.0776,-0.0579,-0.3257,0.1984,-1.0986,-0.1373
1.731066107,1.733368039,-1.0754,-0.0576,-0.3308,0.1984,-1.0986,-0.1373
1.734413981,1.736705899,-1.0754,-0.0576,-0.3308,0.1984,-1.0986,-0.1373
1.739405036,1.742293954,-1.0754,-0.0576,-0.3308,0.3052,-0.7477,-0.0916
1.743234038,1.745535016,-1.0754,-0.0576,-0.3308,0.3052,-0.7477,-0.0916
1.746746897,1.749046921,-1.0754,-0.0576,-0.3308,0.3052,-0.7477,-0.1221
1.750239014,1.752538085,-1.0813,-0.0632,-0.3352,-0.0458,-0.8545,-0.1221
1.753405928,1.755704045,-1.0813,-0.0632,-0.3352,-0.0458,-0.8545,-0.1221
1.756522059,1.758815884,-1.0813,-0.0632,-0.3352,-0.0458,-0.8545,-0.1221
1.759666085,1.761958956,-1.0813,-0.0632,-0.3352,0.3815,-0.8392,-0.061
1.762828946,1.765118956,-1.0813,-0.0632,-0.3352,0.3815,-0.8392,-0.061
1.76593697,1.768228888,-1.0813,-0.0632,-0.3352,0.3815,-0.8392,-0.061
1.76906693,1.772506118,-1.0811,-0.0576,-0.3289,0.3357,-0.9003,0.1068
1.773614049,1.775910973,-1.0811,-0.0576,-0.3289,0.3357,-0.9003,0.1068
1.777023911,1.780871987,-1.0811,-0.0576,-0.3289,0.3357,-0.9003,0.1068
1.782040953,1.786085009,-1.0811,-0.0576,-0.3289,0.1831,-0.6409,-0.0153
1.787529111,1.789912104,-1.0811,-0.0564,-0.3254,0.1831,-0.6409,-0.0153
1.790898919,1.794750094,-1.0786,-0.0564,-0.3254,0.4425,-0.5493,-0.2289
1.795827985,1.798756957,-1.0786,-0.0564,-0.3254,0.4425,-0.5493,-0.2289
1.800036072,1.802779078,-1.0786,-0.0564,-0.3254,0.4425,-0.5493,-0.2289
1.804041028,1.806331992,-1.0786,-0.0564,-0.3254,0.2441,-0.9003,-0.3662
1.808901906,1.811257958,-1.0786,-0.0564,-0.3333,0.2441,-0.9003,-0.3662
1.81281197,1.815569997,-1.0786,-0.0564,-0.3333,0.3357,-0.9918,-0.2441
1.817216038,1.819534898,-1.0786,-0.0564,-0.3333,0.3357,-0.9918,-0.2441
1.82052195,1.823639035,-1.0786,-0.0564,-0.3333,0.3357,-0.9918,-0.2441
1.824628949,1.826928973,-1.0786,-0.0564,-0.3333,0.2289,-0.824,-0.4883
1.827885031,1.830252051,-1.0786,-0.0566,-0.3303,0.2289,-0.824,-0.4883
1.831224084,1.833603024,-1.0796,-0.0566,-0.3303,0.2289,-0.824,-0.4883
1.834519982,1.836813092,-1.0796,-0.0566,-0.3303,0.1221,-0.6409,-0.3357
1.837680936,1.839989066,-1.0796,-0.0566,-0.3303,0.1221,-0.6409,-0.3357
1.84080708,1.843100905,-1.0796,-0.0566,-0.3303,0.1221,-0.6409,-0.3357
1.843913912,1.846203923,-1.0796,-0.0566,-0.3303,0.1221,-0.6409,-0.3357
1.847065091,1.849577069,-1.0796,-0.0566,-0.3303,-0.0458,-0.6714,-0.2899
1.850377917,1.85267508,-1.0833,-0.0564,-0.3284,-0.0458,-0.6714,-0.2899
1.853481888,1.855774045,-1.0833,-0.0564,-0.3284,-0.0458,-0.6714,-0.2899
1.856568932,1.858861088,-1.0833,-0.0564,-0.3284,0.3357,-1.0376,-0.3967
1.85979402,1.862084031,-1.0833,-0.0564,-0.3284,0.3357,-1.0376,-0.3967
1.862917065,1.86521089,-1.0833,-0.0564,-0.3284,0.3357,-1.0376,-0.3967
1.866078973,1.86837089,-1.0833,-0.0564,-0.3284,0.3357,-1.0376,-0.3967
1.869202017,1.871508956,-1.0811,-0.0637,-0.3279,0.1526,-0.946,-0.3967
1.872361064,1.874666094,-1.0811,-0.0637,-0.3279,0.1526,-0.946,-0.3967
1.875476002,1.87777102,-1.0811,-0.0637,-0.3279,0.1526,-0.946,-0.3967
1.878629088,1.880935073,-1.0811,-0.0637,-0.3279,0.5035,-0.3357,-0.3052
1.88181293,1.884107947,-1.0811,-0.0637,-0.3279,0.5035,-0.3357,-0.3052
1.885521054,1.889984011,-1.0811,-0.0637,-0.3279,0.5035,-0.3357,-0.3052
1.890982032,1.893268943,-1.0723,-0.0627,-0.3289,0.8087,-0.412,-0.1678
1.894169926,1.898558974,-1.0723,-0.0627,-0.3289,0.8087,-0.412,-0.1678
1.899547934,1.901845097,-1.0723,-0.0627,-0.3289,0.8087,-0.6409,-0.2441
1.902923941,1.906499982,-1.0723,-0.0627,-0.3289,0.3815,-0.6409,-0.2441
1.9076339,1.910481095,-1.0723,-0.0002,-0.3293,0.3815,-0.6409,-0.2441
1.911351084,1.914861083,-1.0752,-0.0598,-0.3293,0.1984,-0.7324,-0.1221
1.915981888,1.918274045,-1.0752,-0.0598,-0.3293,0.1984,-0.7324,-0.1221
1.91949594,1.921903014,-1.0752,-0.0598,-0.3293,0.1984,-0.7324,-0.1221
1.922975897,1.925607085,-1.0752,-0.0598,-0.3293,-0.1678,-0.946,-0.2441
1.928417086,1.931326031,-1.0769,-0.061,-0.3362,-0.1678,-0.946,-0.2441
1.932479977,1.934891104,-1.0769,-0.061,-0.3362,-0.3204,-0.7477,-0.0458
1.936020016,1.939417958,-1.0769,-0.061,-0.3362,-0.3204,-0.7477,-0.0458
1.941129088,1.943424105,-1.0769,-0.061,-0.3362,-0.3204,-0.7477,-0.0458
1.945581078,1.948346972,-1.0769,-0.061,-0.3362,-0.3967,-0.9766,-0.0305
1.948867917,1.951274037,-1.075,-0.0591,-0.3296,-0.3967,-0.9766,-0.0305
1.952317118,1.954613089,-1.075,-0.0591,-0.3296,-0.3967,-0.9766,-0.0305
1.956205964,1.958917021,-1.075,-0.0591,-0.3296,-0.1221,-0.5646,0.2747
1.959607958,1.962046027,-1.075,-0.0591,-0.3296,-0.1221,-0.5646,0.2747
1.963159918,1.96558392,-1.075,-0.0591,-0.3296,-0.1221,-0.5646,0.2747
1.96657598,1.968999028,-1.075,-0.0591,-0.3296,-0.0763,-0.824,-0.0458
1.970646977,1.974273085,-1.0813,-0.0566,-0.333,-0.0763,-0.824,-0.0458
1.975163102,1.978241086,-1.0813,-0.0566,-0.333,-0.0763,-0.824,0.1526
1.980722069,1.983017087,-1.0813,-0.0566,-0.333,0.412,-0.6104,0.1526
1.984610915,1.988268017,-1.0813,-0.0566,-0.333,0.412,-0.6104,0.1526
1.988781094,1.991921067,-1.0828,-0.0579,-0.3206,0.2441,-0.5646,-0.1526
1.992915988,1.995206952,-1.0828,-0.0579,-0.3206,0.2441,-0.5646,-0.1526
1.996868968,1.999168992,-1.0828,-0.0579,-0.3206,0.2441,-0.5646,3.7537
2.000251889,2.002539992,-1.0828,-0.0579,-0.3206,0.2899,-0.8087,0.2594
2.004172921,2.006472945,-1.0828,-0.0579,-0.3206,0.2899,-0.8087,0.2594
2.00741899,2.010084986,-1.0828,-0.0579,-0.3206,0.2899,-0.8087,0.2594
2.011231064,2.013522029,-1.075,-0.0598,-0.3306,-0.1831,-0.7782,0.2289
2.015816092,2.018314957,-1.075,-0.0598,-0.3306,-0.1831,-0.7782,0.2289
2.019641041,2.021926999,-1.075,-0.0598,-0.3306,-0.0153,-0.9613,0.0916
2.023191094,2.025484919,-1.075,-0.0598,-0.3306,-0.0153,-0.9613,0.0916
2.026500106,2.030482888,-1.075,-0.0598,-0.3306,-0.0153,-0.9613,0.0916
2.031598925,2.033925891,-1.0771,-0.0581,-0.3325,0.0458,-0.5493,0.2747
2.034793019,2.037090897,-1.0771,-0.0581,-0.3325,0.0458,-0.5493,0.2747
2.037958979,2.040290951,-1.0771,-0.0581,-0.3325,0.0458,-0.5493,0.2747
2.041116118,2.043568015,-1.0771,-0.0581,-0.3325,0.0458,-0.3967,0.2747
2.045003056,2.04756701,-1.0771,-0.0581,-0.3325,0.2747,-0.3967,0.2747
2.04974401,2.052638888,-1.0806,-0.0552,-0.3379,0.2747,-0.3967,0.2747
2.053144097,2.055601,-1.0806,-0.0552,-0.3379,0.1068,-0.885,0.2594
2.056724906,2.059533953,-1.0806,-0.0552,-0.3379,0.1068,-0.885,0.2594
2.061130881,2.063432097,-1.0806,-0.0552,-0.3379,0.1068,-0.885,0.2594
2.065235972,2.067530036,-1.0806,-0.0552,-0.3379,0.2594,-1.0071,-0.2747
2.068505883,2.071769118,-1.0806,-0.0508,-0.3369,0.2594,-1.0071,-0.2747
2.072863936,2.075266003,-1.0842,-0.0508,-0.3369,0.2594,-1.0071,-0.2747
2.07623589,2.078532099,-1.0842,-0.0508,-0.3369,0.5493,-0.946,-0.5035
2.079542994,2.082486987,-1.0842,-0.0508,-0.3369,0.5493,-0.946,-0.5035
2.083002925,2.085373044,-1.0842,-0.0508,-0.3369,0.5493,-0.946,-0.5035
2.087077975,2.089388013,-1.0842,-0.0508,-0.3369,0.351,-1.1749,-0.5646
2.089889884,2.094170928,-1.0771,-0.0481,-0.3335,0.351,-1.1749,-0.5646
2.095719933,2.098533988,-1.0771,-0.0481,-0.3335,0.351,-1.2054,-0.6714
2.100386977,2.10363996,-1.0771,-0.0481,-0.3335,0.3662,-1.2054,-0.6714
2.104503989,2.106915116,-1.0771,-0.0481,-0.3335,0.3662,-1.2054,-0.6714
2.107723117,2.110066056,-1.0771,-0.0481,-0.3335,0.2441,-1.1444,-0.7172
2.110953927,2.113249898,-1.0767,-0.0588,-0.3254,0.2441,-1.1444,-0.7172
2.114086985,2.116377949,-1.0767,-0.0588,-0.3254,0.2441,-1.1444,-0.7172
2.117246031,2.119553923,-1.0767,-0.0588,-0.3254,0.2441,-1.1444,-0.9003
2.120431065,2.122726083,-1.0767,-0.0588,-0.3254,0.5798,-1.2207,-0.9003
2.123712897,2.1260041,-1.0767,-0.0588,-0.3254,0.5798,-1.2207,-0.9003
2.126845956,2.12914598,-1.0767,-0.0588,-0.3254,0.5798,-1.2207,-0.9003
2.130094886,2.132388949,-1.082,-0.0571,-0.3313,0.5798,-1.236,-0.8698
2.133205056,2.135496974,-1.082,-0.0571,-0.3313,0.5798,-1.236,-0.8698
2.136311888,2.138605952,-1.082,-0.0571,-0.3313,0.5798,-1.236,-0.8698
2.139525056,2.141902089,-1.082,-0.0571,-0.3313,0.2747,-1.0834,-1.1139
2.142763018,2.145058036,-1.082,-0.0571,-0.3313,0.2747,-1.0834,-1.1139
2.145894885,2.148187041,-1.082,-0.0571,-0.3313,0.2747,-1.0834,-1.1139
2.149001002,2.151302933,-1.082,-0.0557,-0.3279,0.2747,-1.0834,-1.1139
2.152171969,2.15446794,-1.0774,-0.0557,-0.3279,0.5951,-0.8392,-1.1749
2.155315041,2.157607913,-1.0774,-0.0557,-0.3279,0.5951,-0.8392,-1.1749
2.158422112,2.160724997,-1.0774,-0.0557,-0.3279,0.5951,-0.8392,-1.1749
2.161542058,2.163837075,-1.0774,-0.0557,-0.3279,0.6409,-1.1139,-0.946
2.164701104,2.166992068,-1.0774,-0.0557,-0.3279,0.6409,-1.1139,-0.946
2.167812943,2.170250058,-1.0774,-0.0557,-0.3279,0.6409,-1.1139,-0.946
2.171126961,2.173421979,-1.0742,-0.062,-0.3328,0.6409,-1.1139,-0.946
2.174234032,2.17652905,-1.0742,-0.062,-0.3328,0.2289,-1.3275,-1.0681
2.177385926,2.179736018,-1.0742,-0.062,-0.3328,0.2289,-1.3275,-1.0681
2.180580973,2.182875037,-1.0742,-0.062,-0.3328,0.2289,-1.3275,-1.0681
2.183734059,2.18603003,-1.0742,-0.062,-0.3328,0.1526,-1.0376,-1.0071
2.186833024,2.189125895,-1.0742,-0.062,-0.3328,0.1526,-1.0376,-1.0071
2.190112948,2.192408919,-1.0769,-0.0664,-0.3357,0.1526,-1.0376,-1.0071
2.193345904,2.195644021,-1.0769,-0.0664,-0.3357,0.1526,-1.0376,-0.5341
2.196452021,2.198743939,-1.0769,-0.0664,-0.3357,0.5341,-1.1597,-0.5341
2.199829936,2.202123999,-1.0769,-0.0664,-0.3357,0.5341,-1.1597,-0.5341
2.202948928,2.205253005,-1.0769,-0.0664,-0.3357,0.5341,-1.1597,-0.5341
2.206147074,2.208438039,-1.0769,-0.0664,-0.3357,0.5646,-1.0681,-0.3967
2.209441065,2.211840033,-1.0803,-0.064,-0.332,0.5646,-1.0681,-0.3967
2.212614894,2.215076089,-1.0803,-0.064,-0.332,0.5646,-1.0681,-0.3967
2.215592026,2.218666911,-1.0803,-0.064,-0.332,0.6866,-1.2207,0.0458
2.219529986,2.221825957,-1.0803,-0.064,-0.332,0.6866,-1.2207,0.0458
2.222694039,2.224985003,-1.0803,-0.064,-0.332,0.6866,-1.2207,0.0458
2.225789904,2.228087067,-1.0803,-0.064,-0.332,0.6866,-1.2207,0.0458
2.228922963,2.231268048,-1.0803,-0.0632,-0.3201,0.2747,-1.3428,0.3662
2.23214209,2.234433055,-1.0774,-0.0632,-0.3201,0.2747,-1.3428,0.3662
2.235299945,2.237599969,-1.0774,-0.0632,-0.3201,0.2747,-1.3428,0.3662
2.238414883,2.240718007,-1.0774,-0.0632,-0.3201,-0.1068,-1.0834,0.2289
2.241541028,2.243835091,-1.0774,-0.0632,-0.3201,-0.1068,-1.0834,0.2289
2.244697928,2.246991992,-1.0774,-0.0632,-0.3201,-0.1068,-1.0834,0.2289
2.247769952,2.250104069,-1.0774,-0.0632,-0.3201,-0.1068,-1.0834,0.3204
2.250939965,2.253235936,-1.075,-0.053,-0.3289,-0.3052,-1.0834,0.3204
2.254092097,2.256382107,-1.075,-0.053,-0.3289,-0.3052,-1.0834,0.3204
2.257216096,2.259628892,-1.075,-0.053,-0.3289,-0.3052,-1.0834,0.3204
2.26058495,2.262877106,-1.075,-0.053,-0.3289,-0.5493,-1.1139,0.1831
2.26373589,2.266029,-1.075,-0.053,-0.3289,-0.5493,-1.1139,0.1831
2.266890883,2.269183039,-1.075,-0.053,-0.3289,-0.5493,-1.1139,0.1831
2.2701689,2.272468924,-1.084,-0.0525,-0.3318,-0.5493,-1.3123,-0.1221
2.273243069,2.275541901,-1.084,-0.0525,-0.3318,-0.4272,-1.3123,-0.1221
2.27639997,2.278694987,-1.084,-0.0525,-0.3318,-0.4272,-1.3123,-0.1221
2.279585957,2.281875968,-1.084,-0.0525,-0.3318,-0.4272,-1.3123,-0.1221
2.282695889,2.284988045,-1.084,-0.0525,-0.3318,-0.0763,-1.2512,-0.5188
2.285848021,2.288140893,-1.084,-0.0525,-0.3318,-0.0763,-1.2512,-0.5188
2.288971066,2.29144299,-1.084,-0.0493,-0.3313,-0.0763,-1.2512,-0.5188
2.292497992,2.29479897,-1.0798,-0.0493,-0.3313,-0.351,-1.4801,-1.1444
2.295564055,2.297859072,-1.0798,-0.0493,-0.3313,-0.351,-1.4801,-1.1444
2.298715949,2.301174998,-1.0798,-0.0493,-0.3313,-0.351,-1.4801,-1.1444
2.30202496,2.304319977,-1.0798,-0.0493,-0.3313,-0.351,-1.4801,-1.1444
2.306506037,2.311507106,-1.0798,-0.0493,-0.3313,-0.2441,-1.4954,-1.8158
2.312334895,2.314627051,-1.0754,-0.0486,-0.3345,-0.2441,-1.4954,-1.8158
2.315494895,2.318579077,-1.0754,-0.0486,-0.3345,0.2899,-1.6937,-2.3193
2.319094062,2.321983933,-1.0754,-0.0486,-0.3345,0.2899,-1.6937,-2.3193
2.324222922,2.326517939,-1.0754,-0.0486,-0.3345,0.2899,-1.6937,-2.7313
2.327468037,2.329773068,-1.0754,-0.0486,-0.3345,0.473,-1.5869,-2.7313
2.330671906,2.333063006,-1.0742,-0.05,-0.3389,0.473,-1.5869,-2.7313
2.333934903,2.336226105,-1.0742,-0.05,-0.3389,0.473,-1.5869,-2.7313
2.33703506,2.33968389,-1.0742,-0.05,-0.3389,0.2594,-1.5106,-3.0823
2.340732932,2.343998074,-1.0742,-0.05,-0.3389,0.2594,-1.5106,-3.0823
2.345575928,2.347922921,-1.0742,-0.05,-0.3389,0.2594,-1.5106,-3.0823
2.348947882,2.352930903,-1.0742,-0.05,-0.3318,0.5188,-1.8921,-4.0436
2.354612946,2.356902957,-1.0806,-0.054,-0.3318,0.5188,-1.8921,-4.0436
2.357998013,2.360300898,-1.0806,-0.054,-0.3318,0.9766,-1.9684,-4.5166
2.362167954,2.364462971,-1.0806,-0.054,-0.3318,0.9766,-1.9684,-4.5166
2.365574002,2.368949055,-1.0806,-0.054,-0.3318,0.9766,-1.9684,-4.5166
2.370700001,2.373129964,-1.0771,-0.0583,-0.3271,0.9918,-1.6174,-4.4098
2.374276042,2.376966119,-1.0771,-0.0583,-0.3271,0.9918,-1.6174,-4.4098
2.378708005,2.381687998,-1.0771,-0.0583,-0.3271,0.7477,-1.6632,-4.7302
2.382864117,2.385590911,-1.0771,-0.0583,-0.3271,0.7477,-1.6632,-4.7302
2.386738896,2.390093922,-1.0771,-0.0583,-0.3271,0.7477,-1.6632,-4.7302
2.391171097,2.393598914,-1.0786,-0.0557,-0.3237,0.8545,-1.8158,-4.8065
2.39459598,2.397781968,-1.0786,-0.0557,-0.3237,0.8545,-1.8158,-4.8065
2.398657918,2.401064992,-1.0786,-0.0557,-0.3237,0.8545,-1.8158,-4.8065
2.401881098,2.404763102,-1.0786,-0.0557,-0.3237,1.0681,-2.0142,-5.3558
2.40677607,2.409144044,-1.0786,-0.0557,-0.3237,1.0681,-2.0142,-5.3558
2.412342906,2.415126919,-1.0811,-0.0591,-0.3276,0.885,-1.9531,-5.9509
2.416248917,2.419053912,-1.0811,-0.0591,-0.3276,0.885,-1.9531,-5.9509
2.420208096,2.423104882,-1.0811,-0.0591,-0.3276,0.885,-1.9531,-5.9509
2.424071908,2.426369071,-1.0811,-0.0591,-0.3276,0.1678,-2.4414,-6.8054
2.42752707,2.430960059,-1.0811,-0.0591,-0.3276,0.1678,-2.4414,-6.8054
2.431949019,2.43424499,-1.0679,-0.0625,-0.3171,0.1678,-2.4414,-6.8054
2.435171008,2.437470078,-1.0679,-0.0625,-0.3171,-0.0305,-2.5635,-7.4463
2.438296914,2.440635085,-1.0679,-0.0625,-0.3171,-0.0305,-2.5635,-7.4463
2.441464066,2.44376409,-1.0679,-0.0625,-0.3171,-0.0305,-2.5635,-7.4463
2.444538951,2.446827054,-1.0679,-0.0625,-0.3171,-0.0305,-2.9449,-8.1024
2.447687983,2.450076937,-1.0679,-0.0625,-0.3171,0.0305,-2.9449,-8.1024
2.450945973,2.45324099,-1.0811,-0.0527,-0.3301,0.0305,-2.9449,-8.1024
2.454062104,2.456353068,-1.0811,-0.0527,-0.3301,0.0305,-2.9449,-8.1024
2.457191109,2.459535956,-1.0811,-0.0527,-0.3301,0.1068,-3.1128,-9.8267
2.460497975,2.462799906,-1.0811,-0.0527,-0.3301,0.1068,-3.1128,-9.8267
2.463666081,2.465963006,-1.0811,-0.0527,-0.3301,0.1068,-3.1128,-9.8267
2.466772914,2.469068885,-1.0811,-0.0527,-0.3301,0.3815,-3.4485,-11.6882
2.469996094,2.472443938,-1.0811,-0.0327,-0.3481,0.3815,-3.4485,-11.6882
2.473319888,2.475607037,-1.0837,-0.0327,-0.3481,0.3815,-3.4485,-11.6882
2.476431966,2.478726029,-1.0837,-0.0327,-0.3481,0.3815,-3.4485,-11.6882
2.480332017,2.482653022,-1.0837,-0.0327,-0.3481,1.0834,-3.7079,-13.2904
2.483512044,2.486324906,-1.0837,-0.0327,-0.3481,1.0834,-3.7079,-13.2904
2.487002015,2.489338994,-1.0837,-0.0327,-0.3481,1.0834,-3.7079,-13.2904
2.490214944,2.492508053,-1.0874,-0.0693,-0.3274,1.9379,-4.1809,-14.7247
2.493332982,2.495627045,-1.0874,-0.0693,-0.3274,1.9379,-4.1809,-14.7247
2.496455073,2.498746037,-1.0874,-0.0693,-0.3274,1.9379,-4.1809,-14.7247
2.500342011,2.504351973,-1.0874,-0.0693,-0.3274,3.1891,-4.8981,-16.2354
2.505763888,2.508053899,-1.0874,-0.0693,-0.3274,3.1891,-4.8981,-16.2354
2.508902907,2.511246085,-1.0874,-0.0693,-0.3274,3.1891,-4.8981,-16.2354
2.512061953,2.514355063,-1.0898,-0.0649,-0.3367,3.9215,-5.5084,-18.219
2.515224099,2.517525077,-1.0898,-0.0649,-0.3367,3.9215,-5.5084,-18.219
2.518399119,2.521020055,-1.0898,-0.0649,-0.3367,3.9215,-5.5084,-18.219
2.52187097,2.524165988,-1.0898,-0.0649,-0.3367,4.7455,-6.4697,-21.0114
2.524980902,2.527279019,-1.0898,-0.0649,-0.3367,4.7455,-6.4697,-21.0114
2.528051018,2.530435919,-1.0898,-0.0649,-0.3367,4.7455,-6.4697,-21.0114
2.531309008,2.533613085,-1.0845,-0.0862,-0.3093,4.7455,-6.4697,-23.9105
2.534489035,2.536786914,-1.0845,-0.0862,-0.3093,5.661,-8.2855,-23.9105
2.537613988,2.539928078,-1.0845,-0.0862,-0.3093,5.661,-8.2855,-23.9105
2.540808081,2.543115973,-1.0845,-0.0862,-0.3093,5.661,-8.2855,-23.9105
2.543963074,2.546255946,-1.0845,-0.0862,-0.3093,5.9357,-10.0403,-28.0914
2.547073006,2.549537062,-1.0845,-0.0862,-0.3093,5.9357,-10.0403,-28.0914
2.550368905,2.552671075,-1.022,-0.113,-0.3003,5.9357,-10.0403,-28.0914
2.553542971,2.555833935,-1.0527,-0.113,-0.3003,5.9357,-11.9934,-32.5317
2.556721091,2.559021115,-1.0527,-0.113,-0.3003,6.8054,-11.9934,-32.5317
2.559959054,2.562255025,-1.0527,-0.113,-0.3003,6.8054,-11.9934,-32.5317
2.563279986,2.56557095,-1.0527,-0.113,-0.3003,6.8054,-11.9934,-32.5317
2.566441893,2.568741917,-1.0527,-0.113,-0.3003,8.6365,-12.9852,-38.3301
2.569527983,2.571818947,-1.0527,-0.113,-0.4253,8.6365,-12.9852,-38.3301
2.57269299,2.574987054,-1.1394,0.0632,-0.4109,8.6365,-12.9852,-38.3301
2.575831055,2.578131079,-1.1394,0.0632,-0.4109,11.1237,-13.9313,-43.2587
2.578992009,2.581380963,-1.1394,0.0632,-0.4109,11.1237,-13.9313,-43.2587
2.582229972,2.584530949,-1.1394,0.0632,-0.4109,11.1237,-13.9313,-43.2587
2.585414052,2.587704062,-1.1394,0.0632,-0.4109,11.1237,-13.9313,-43.2587
2.588544011,2.59087789,-1.1394,0.0632,-0.4109,13.9008,-15.9149,-49.4843
2.59177196,2.594075083,-1.1492,0.0127,-0.3611,13.9008,-15.9149,-49.4843
2.594862103,2.597153067,-1.1492,0.0127,-0.3611,13.9008,-15.9149,-49.4843
2.598038077,2.600421071,-1.1492,0.0127,-0.3611,13.9771,-17.7765,-58.0139
2.601314902,2.603613972,-1.1492,0.0127,-0.3611,13.9771,-17.7765,-58.0139
2.604577899,2.606875062,-1.1492,0.0127,-0.3611,13.9771,-17.7765,-58.0139
2.607752919,2.610257029,-1.1492,0.0127,-0.3611,13.9771,-17.7765,-63.7817
2.6111449,2.613439917,-1.0767,-0.0962,-0.29,16.5405,-18.5852,-63.7817
2.614282965,2.617076993,-1.0767,-0.0962,-0.29,16.5405,-18.5852,-63.7817
2.617919087,2.62026608,-1.0767,-0.0962,-0.29,16.5405,-18.5852,-63.7817
2.621097922,2.623393893,-1.0767,-0.0962,-0.29,19.4702,-20.0806,-68.7714
2.624223113,2.626517892,-1.0767,-0.0962,-0.29,19.4702,-20.0806,-68.7714
2.627395987,2.629743933,-1.0767,-0.0962,-0.29,19.4702,-20.0806,-68.7714
2.630587935,2.632882952,-1.0142,-0.125,-0.26,20.9045,-20.1111,-71.1975
2.633756995,2.636051058,-1.0227,-0.125,-0.26,20.9045,-20.1111,-71.1975
2.636932969,2.639221072,-1.0227,-0.125,-0.26,20.9045,-20.1111,-71.1975
2.640124917,2.642417073,-1.0227,-0.125,-0.26,20.9045,-20.1111,-71.1975
2.643242955,2.645536065,-1.0227,-0.125,-0.26,20.9503,-19.6686,-71.9604
2.646413922,2.648856997,-1.0227,-0.125,-0.26,20.9503,-19.6686,-71.9604
2.64974606,2.652042031,-1.0227,-0.125,-0.3225,20.9503,-19.6686,-71.9604
2.65287292,2.655166983,-0.9951,-0.219,-0.3289,19.8669,-18.1732,-70.5566
2.656043887,2.658333897,-0.9951,-0.219,-0.3289,19.8669,-18.1732,-70.5566
2.659161925,2.661539912,-0.9951,-0.219,-0.3289,19.8669,-18.1732,-70.5566
2.662365079,2.66465795,-0.9951,-0.219,-0.3289,19.8669,-14.267,-66.1163
2.665511965,2.667801976,-0.9951,-0.219,-0.3289,21.9421,-15.5792,-66.1163
2.668674111,2.671161055,-0.9951,-0.219,-0.3289,21.9421,-15.5792,-66.1163
2.672007918,2.674301028,-1.0435,-0.3145,-0.2805,21.9421,-15.5792,-66.1163
2.67517507,2.677468896,-1.0435,-0.3145,-0.2805,23.1323,-14.74,-62.5458
2.678336978,2.680673957,-1.0435,-0.3145,-0.2805,23.1323,-14.74,-62.5458
2.681558013,2.683853984,-1.0435,-0.3145,-0.2805,23.1323,-14.74,-62.5458
2.684701085,2.687002062,-1.0435,-0.3145,-0.2805,22.6746,-14.1907,-57.6477
2.68779099,2.69009602,-1.0435,-0.3145,-0.2805,22.6746,-14.1907,-57.6477
2.690993905,2.693287015,-1.0291,-0.3428,-0.2578,22.6746,-14.1907,-57.6477
2.694167971,2.696464896,-1.0291,-0.3428,-0.2578,22.6746,-14.1907,-57.6477
2.697286009,2.699596047,-1.0291,-0.3428,-0.2578,23.056,-13.9923,-52.536
2.700596928,2.702894091,-1.0291,-0.3428,-0.2578,23.056,-13.9923,-52.536
2.703898072,2.706193089,-1.0291,-0.3428,-0.2578,23.056,-13.9923,-52.536
2.70701611,2.709512114,-1.0291,-0.3428,-0.2578,22.2778,-14.1296,-48.172
2.710298896,2.712689995,-1.0291,-0.3428,-0.2551,22.2778,-14.1296,-48.172
2.713573098,2.718937039,-1.0618,-0.2812,-0.2551,22.2778,-14.1296,-45.6848
2.719926953,2.722221017,-1.0618,-0.2812,-0.2551,21.1945,-13.855,-45.6848
2.723090052,2.72696197,-1.0618,-0.2812,-0.2551,21.1945,-13.855,-45.6848
2.728476882,2.731215119,-1.0618,-0.2812,-0.2551,16.4795,-14.3127,-44.9524
2.732063889,2.734471917,-1.0496,-0.3655,-0.2434,16.4795,-14.3127,-44.9524
2.735731005,2.738532901,-1.0496,-0.3655,-0.2434,16.4795,-14.3127,-44.9524
2.739072919,2.741552949,-1.0496,-0.3655,-0.2434,15.1978,-14.8468,-42.572
2.742735982,2.745030045,-1.0496,-0.3655,-0.2434,15.1978,-14.8468,-42.572
2.746636986,2.749091983,-1.0496,-0.3655,-0.2434,15.1978,-14.8468,-42.572
2.750079035,2.754380107,-1.0496,-0.3655,-0.3059,12.8937,-14.74,-39.9933
2.75544393,2.758252024,-0.9683,-0.4302,-0.2546,12.8937,-14.74,-39.9933
2.760121941,2.762421012,-0.9683,-0.4302,-0.2546,12.8937,-14.74,-32.1808
2.764643073,2.766941905,-0.9683,-0.4302,-0.2546,13.8855,-13.1836,-34.8816
2.768544078,2.770851969,-0.9683,-0.4302,-0.2546,13.8855,-13.1836,-34.8816
2.77256,2.774860978,-1.0542,-0.3728,-0.2439,13.9313,-11.7798,-30.9906
2.775939107,2.778237939,-1.0542,-0.3728,-0.2439,13.9313,-11.7798,-30.9906
2.779068112,2.781417966,-1.0542,-0.3728,-0.2439,13.9313,-11.7798,-30.9906
2.782316088,2.784613013,-1.0542,-0.3728,-0.2439,13.9313,-11.7798,-28.7018
2.785453915,2.787751078,-1.0542,-0.3728,-0.2439,11.795,-12.3901,-28.7018
2.78857696,2.791099906,-1.0542,-0.3728,-0.2439,11.795,-12.3901,-28.7018
2.791969895,2.794263959,-0.9944,-0.3494,-0.2019,11.795,-12.3901,-28.7018
2.795137047,2.797432065,-0.9944,-0.3494,-0.2019,9.3536,-12.6495,-26.6418
2.798292041,2.800669074,-0.9944,-0.3494,-0.2019,9.3536,-12.6495,-26.6418
2.801504016,2.803799987,-0.9944,-0.3494,-0.2019,9.3536,-12.6495,-26.6418
2.804669022,2.807963967,-0.9944,-0.3494,-0.2019,4.0894,-13.6719,-25.0397
2.809340119,2.812965035,-0.9944,-0.3494,-0.2019,4.0894,-13.6719,-25.0397
2.813959002,2.816957116,-0.9912,-0.4431,-0.2126,4.0894,-13.6719,-21.6064
2.818030953,2.821092009,-0.9912,-0.4431,-0.2126,4.0131,-14.2059,-21.6064
2.822066903,2.824597954,-0.9912,-0.4431,-0.2126,4.0131,-14.2059,-21.6064
2.825774073,2.828801036,-0.9912,-0.4431,-0.2126,4.0131,-14.2212,-17.746
2.83001101,2.832305073,-0.9912,-0.4431,-0.2126,5.3253,-14.2212,-17.746
2.833196044,2.835492015,-1.0447,-0.4004,-0.2341,5.3253,-14.2212,-17.746
2.836337924,2.838751912,-1.0447,-0.4004,-0.2341,5.3253,-14.2212,-13.8397
2.839311957,2.841663003,-1.0447,-0.4004,-0.2341,6.7291,-13.2599,-15.0604
2.842774987,2.845454096,-1.0447,-0.4004,-0.2341,6.7291,-13.2599,-15.0604
2.84662497,2.850057006,-1.0447,-0.4004,-0.2341,6.7291,-13.2599,-14.2059
2.851246953,2.853978038,-1.0447,-0.3481,-0.24,7.9803,-13.4735,-14.2059
2.856001973,2.858296036,-1.0618,-0.3481,-0.24,7.9803,-13.4735,-14.2059
2.859424948,2.862362981,-1.0618,-0.3481,-0.24,7.7362,-14.5874,-15.3656
2.862887978,2.865209937,-1.0618,-0.3481,-0.24,7.7362,-14.5874,-15.3656
2.866354108,2.869175076,-1.0618,-0.3481,-0.24,7.7362,-14.5874,-15.3656
2.870998978,2.873295903,-1.0618,-0.3481,-0.2478,7.2632,-15.5334,-18.5242
2.875640988,2.877939105,-0.9607,-0.3315,-0.2478,7.2632,-15.5334,-18.5242
2.878903985,2.881986975,-0.9607,-0.3315,-0.2478,7.2632,-15.5334,-18.5242
2.883680939,2.886217951,-0.9607,-0.3315,-0.2478,6.1798,-16.6168,-21.4233
2.887222886,2.88974297,-0.9607,-0.3315,-0.2478,6.1798,-16.6168,-21.4233
2.891367078,2.893660903,-0.9607,-0.3733,-0.22,6.1798,-16.6168,-22.5677
2.894667983,2.897487044,-1.0044,-0.3733,-0.22,7.6294,-17.4866,-22.5677
2.899380088,2.901672005,-1.0044,-0.3733,-0.22,7.6294,-17.4866,-22.5677
2.902846932,2.906343102,-1.0044,-0.3733,-0.22,8.2703,-18.7683,-23.7579
2.907525897,2.910080075,-1.0044,-0.3733,-0.22,8.2703,-18.7683,-23.7579
2.911723017,2.914734959,-1.0876,-0.3513,-0.2114,8.2703,-18.7683,-23.7579
2.915856003,2.918149113,-1.0876,-0.3513,-0.2114,9.5215,-20.1416,-25.4974
2.918994069,2.923334002,-1.0876,-0.3513,-0.2114,9.5215,-20.1416,-25.4974
2.924358964,2.926653981,-1.0876,-0.3513,-0.2114,9.5215,-21.5302,-28.1372
2.927810073,2.930631995,-1.0876,-0.3513,-0.2114,9.8267,-21.5302,-28.1372
2.932872891,2.935171008,-1.0781,-0.3342,-0.2288,9.8267,-21.5302,-28.1372
2.936304927,2.938604951,-1.0781,-0.3342,-0.2288,9.6588,-23.1476,-32.1045
2.941018939,2.943914056,-1.0781,-0.3342,-0.2288,9.6588,-23.1476,-32.1045
2.94495809,2.947769999,-1.0781,-0.3342,-0.2288,9.6588,-23.1476,-36.8195
2.948903918,2.952024102,-1.0781,-0.3342,-0.2288,10.0403,-24.9023,-36.8195
2.952560067,2.955195069,-1.1775,-0.2144,-0.2566,10.0403,-24.9023,-36.8195
2.956225037,2.958517909,-1.1775,-0.2144,-0.2566,10.0403,-24.9023,-40.7257
2.960483908,2.963888049,-1.1775,-0.2144,-0.2566,11.0779,-27.5879,-42.16
2.964989066,2.967285037,-1.1775,-0.2144,-0.2566,11.0779,-27.5879,-42.16
2.969011903,2.971787095,-1.1775,-0.2144,-0.2566,8.2092,-30.1208,-48.9807
2.97330606,2.975633025,-0.9365,-0.4429,-0.26,8.2092,-30.1208,-48.9807
2.977697968,2.980049014,-0.9365,-0.4429,-0.26,8.2092,-30.1208,-48.9807
2.980929017,2.984569907,-0.9365,-0.4429,-0.26,4.0131,-31.2042,-53.3905
2.985725045,2.988016963,-0.9365,-0.4429,-0.26,4.0131,-31.2042,-53.3905
2.990271926,2.992569089,-0.9365,-0.4429,-0.26,8.2092,-30.3955,-52.0172
2.994171977,2.996461034,-0.9404,-0.4705,-0.1294,8.2092,-30.3955,-52.0172
2.997420907,2.999729991,-0.9404,-0.4705,-0.1294,8.2092,-30.3955,-52.0172
3.001808047,3.004108071,-0.9404,-0.4705,-0.1294,11.6425,-30.0293,-50.9186
3.005735039,3.008037924,-0.9404,-0.4705,-0.1294,11.6425,-30.0293,-50.9186
3.009162068,3.015617013,-0.9404,-0.4705,-0.1294,11.6425,-30.0293,-51.1932
3.016689896,3.018991112,-1.0005,-0.4414,-0.1199,12.8937,-30.6702,-51.1932
3.021030068,3.023323893,-1.0005,-0.4414,-0.1199,12.8937,-30.6702,-51.1932
3.024195075,3.027380109,-1.0005,-0.4414,-0.1199,11.0016,-31.189,-51.712
3.028644919,3.03099811,-1.0005,-0.4414,-0.1199,11.0016,-31.189,-51.712
3.033378958,3.035677075,-0.9868,-0.4514,-0.1111,11.0016,-31.6162,-51.7731
3.036954999,3.039315104,-0.9868,-0.4514,-0.1111,11.2,-31.6162,-51.7731
3.040229916,3.042604088,-0.9868,-0.4514,-0.1111,11.2,-31.6162,-51.7731
3.043446898,3.045760989,-0.9868,-0.4514,-0.1111,11.2,-31.6162,-51.7731
3.046295047,3.04914701,-0.9868,-0.4514,-0.1111,11.3373,-31.1432,-52.6581
3.051394105,3.053695082,-0.9868,-0.4514,-0.1265,11.3373,-31.1432,-52.6581
3.055272937,3.05815804,-0.969,-0.4526,-0.1265,10.8032,-29.48,-55.4504
3.060242057,3.062535882,-0.969,-0.4526,-0.1265,10.8032,-29.48,-55.4504
3.063698888,3.065998912,-0.969,-0.4526,-0.1265,10.8032,-29.48,-55.4504
3.066976905,3.069929957,-0.969,-0.4526,-0.1265,9.4452,-28.3661,-57.6172
3.072281956,3.075403094,-0.957,-0.4604,-0.1426,9.4452,-28.3661,-57.6172
3.076578021,3.078870892,-0.957,-0.4604,-0.1426,9.4452,-28.3661,-58.9142
3.080654978,3.083427071,-0.957,-0.4604,-0.1426,9.8114,-27.6794,-58.9142
3.085043072,3.087345957,-0.957,-0.4604,-0.1426,9.8114,-27.6794,-58.9142
3.089173913,3.091523051,-0.957,-0.4604,-0.1426,9.0332,-26.5045,-60.9589
3.092492938,3.095866084,-0.8193,-0.5891,-0.1384,9.0332,-26.5045,-60.9589
3.097041011,3.099496007,-0.8193,-0.5891,-0.1384,9.0332,-26.5045,-60.9589
3.100640893,3.103063941,-0.8193,-0.5891,-0.1384,9.613,-24.5209,-62.3779
3.103964925,3.106357932,-0.8193,-0.5891,-0.1384,9.613,-24.5209,-62.3779
3.107448935,3.110489011,-0.8193,-0.5891,-0.1384,9.613,-24.5209,-62.3779
3.111668944,3.116556048,-0.8193,-0.5891,-0.0591,13.0615,-22.11,-59.9213
3.117701888,3.120849013,-0.9121,-0.6106,-0.0591,13.0615,-22.11,-59.9213
3.121770024,3.12473309,-0.9121,-0.6106,-0.0591,16.571,-20.3705,-57.0221
3.126400113,3.129484057,-0.9121,-0.6106,-0.0591,16.571,-20.3705,-57.0221
3.130019068,3.132396102,-0.9121,-0.6106,-0.0591,16.571,-20.3705,-57.0221
3.133535027,3.13620007,-0.9541,-0.5852,-0.0447,15.4877,-19.8059,-55.5725
3.137831092,3.1402601,-0.9541,-0.5852,-0.0447,15.4877,-19.8059,-55.5725
3.141241908,3.143664002,-0.9541,-0.5852,-0.0447,15.4877,-19.8059,-55.5725
3.144234061,3.147316098,-0.9541,-0.5852,-0.0447,14.8163,-19.2719,-54.4586
3.148482918,3.150925994,-0.9541,-0.5852,-0.0447,14.8163,-19.2719,-54.4586
3.152007937,3.154434085,-0.9541,-0.5227,-0.042,14.8163,-19.2719,-54.4586
3.155556082,3.157982945,-1.0029,-0.5518,-0.042,15.3809,-19.6075,-52.0782
3.158836007,3.161198973,-1.0029,-0.5518,-0.042,15.3809,-19.6075,-52.0782
3.164893031,3.167194009,-1.0029,-0.5518,-0.042,14.2517,-19.0277,-51.8036
3.169159054,3.171594977,-1.0029,-0.5518,-0.042,14.2517,-19.0277,-51.8036
3.173241019,3.175663113,-0.8909,-0.5288,-0.0793,14.2517,-19.0277,-51.8036
3.177279114,3.179696917,-0.8909,-0.5288,-0.0793,11.5662,-18.0511,-52.8412
3.181384921,3.183677077,-0.8909,-0.5288,-0.0793,11.5662,-18.0511,-52.8412
3.184843898,3.187147975,-0.8909,-0.5288,-0.0793,11.5662,-18.0511,-52.8412
3.18889296,3.191733956,-0.8909,-0.5288,-0.0793,8.6212,-16.5558,-53.4515
3.193930983,3.196226,-0.7471,-0.6907,-0.0178,8.6212,-16.5558,-53.4515
3.198027968,3.200418114,-0.7471,-0.6907,-0.0178,9.0332,-13.6871,-52.0172
3.201954961,3.204253077,-0.7471,-0.6907,-0.0178,9.0332,-13.6871,-52.0172
3.206617951,3.208910107,-0.7471,-0.6907,-0.0178,9.0332,-13.6871,-52.0172
3.210797906,3.213096022,-0.7471,-0.6907,-0.0178,9.5062,-12.0087,-49.1791
3.214264989,3.216563105,-0.759,-0.6724,0.0613,9.5062,-12.0087,-49.1791
3.217582106,3.220301032,-0.759,-0.6724,0.0613,9.5062,-12.0087,-47.348
3.221974015,3.227804064,-0.759,-0.6724,0.0613,9.6436,-10.9558,-47.348
3.22894895,3.231810927,-0.759,-0.6724,0.0613,9.6436,-10.9558,-43.0298
3.232976079,3.235273003,-0.8037,-0.7346,-0.0149,8.8196,-10.6201,-43.0298
3.237068057,3.239369034,-0.8037,-0.7346,-0.0149,8.8196,-10.6201,-43.0298
3.240563988,3.242864012,-0.8037,-0.7346,-0.0149,8.8196,-8.3008,-37.1704
3.243727088,3.246023059,-0.8037,-0.7346,-0.0149,9.3689,-8.3008,-37.1704
3.246813893,3.249112963,-0.8037,-0.7346,-0.0149,9.3689,-8.3008,-37.1704
3.250031113,3.252323031,-0.8037,-0.7346,-0.0149,9.3689,-8.3008,-37.1704
3.253198981,3.255488991,-0.8757,-0.7302,-0.0127,9.2163,-3.6926,-28.6255
3.256367087,3.258667111,-0.8757,-0.7302,-0.0127,9.2163,-3.6926,-28.6255
3.259534955,3.262159943,-0.8757,-0.7302,-0.0127,9.2163,-3.6926,-28.6255
3.262980103,3.26691091,-0.8757,-0.7302,-0.0127,5.9814,0.2289,-20.5841
3.268598914,3.270907044,-0.8757,-0.7302,-0.0127,5.9814,0.2289,-20.5841
3.271901011,3.274294018,-0.8757,-0.7302,0.1123,5.9814,0.2289,-20.5841
3.275263905,3.278149008,-0.7297,-0.7141,0.0793,2.8381,4.5624,-11.5662
3.280433058,3.282724976,-0.7297,-0.7141,0.0793,2.8381,4.5624,-11.5662
3.284438014,3.287335038,-0.7297,-0.7141,0.0793,-1.1902,8.7128,-4.1351
3.288437009,3.291315913,-0.7297,-0.7141,0.0793,-1.1902,8.7128,-4.1351
3.293007016,3.295298934,-0.6672,-0.8167,0.0774,-1.1902,8.7128,-4.1351
3.296990037,3.299323916,-0.6274,-0.8167,0.0774,-4.6387,12.2986,5.0354
3.300339102,3.302632928,-0.6274,-0.8167,0.0774,-4.6387,12.2986,5.0354
3.303788066,3.306078076,-0.6274,-0.8167,0.0774,-4.6387,12.2986,5.0354
3.307244897,3.31113398,-0.6274,-0.8167,0.0774,-7.3242,17.5934,15.4572
3.312249064,3.315064072,-0.6274,-0.8167,0.1628,-7.3242,17.5934,15.4572
3.316050887,3.318440079,-0.8215,-0.8193,0.1628,-7.3242,17.5934,25.4211
3.319709897,3.322008013,-0.8215,-0.8193,0.1628,-12.7716,24.5361,25.4211
3.32288301,3.32518208,-0.8215,-0.8193,0.1628,-12.7716,24.5361,25.4211
3.327256083,3.329794049,-0.8215,-0.8193,0.1628,-12.7716,24.5361,36.0565
3.330691933,3.33379209,-0.8215,-0.8193,0.1628,-17.2729,33.2642,36.0565
3.334667086,3.336968064,-0.9646,-0.8503,0.1797,-17.2729,33.2642,36.0565
3.337793946,3.341817975,-0.9646,-0.8503,0.1797,-24.292,43.6859,47.1954
3.342995047,3.345286965,-0.9646,-0.8503,0.1797,-24.292,43.6859,47.1954
3.346468091,3.348765969,-0.9646,-0.8503,0.1797,-24.292,43.6859,47.1954
3.350181937,3.352482915,-0.9646,-0.8503,0.1797,-26.062,57.0374,62.0422
3.353356003,3.355657935,-1.0659,-0.9207,0.0217,-26.062,57.0374,62.0422
3.356490016,3.360488057,-1.0659,-0.9207,0.0217,-26.062,57.0374,62.0422
3.362310052,3.364606023,-1.0659,-0.9207,0.0217,-23.8037,72.052,80.8105
3.366378903,3.368929982,-1.0659,-0.9207,0.0217,-23.8037,72.052,80.8105
3.370516896,3.372818112,-1.0659,-0.9207,0.0217,-23.8037,72.052,108.1543
3.374127984,3.376423001,-1.1343,-1.0972,-0.2004,-18.6462,87.9517,108.902
3.377589106,3.379918933,-1.1343,-1.0972,-0.2004,-18.6462,87.9517,108.902
3.380762934,3.383051037,-1.1343,-1.0972,-0.2004,-18.6462,87.9517,108.902
3.383845925,3.386139989,-1.1343,-1.0972,-0.2004,-9.2163,104.126,146.1029
3.387019992,3.38933289,-1.1343,-1.0972,-0.2004,-9.2163,104.126,146.1029
3.390215039,3.394132971,-1.1343,-1.0972,-0.2004,-9.2163,104.126,146.1029
3.395213961,3.398027062,-1.2832,-1.0654,-0.011,-5.9814,116.5314,186.0352
3.399113059,3.402428031,-1.2832,-1.0654,-0.011,-5.9814,116.5314,186.0352
3.404101968,3.406391978,-1.2832,-1.0654,-0.011,-13.7939,120.0409,225.4486
3.407920956,3.410275101,-1.2832,-1.0654,-0.011,-13.6719,120.0409,225.4486
3.411955952,3.414245963,-1.2832,-1.0654,-0.011,-13.6719,120.0409,225.4486
3.415376067,3.419680953,-2.0103,-0.7588,-0.02,-35.6903,113.1897,262.6343
3.421136021,3.423431039,-2.0103,-0.7588,-0.02,-35.6903,113.1897,262.6343
3.424591899,3.427264094,-2.0103,-0.7588,-0.02,-35.6903,113.1897,278.2593
3.42870295,3.431104064,-2.0103,-0.7588,-0.02,-56.0303,96.6034,281.1737
3.433229088,3.437132954,-4.3228,-0.2891,-0.3923,-56.0303,96.6034,281.1737
3.438264966,3.441074967,-4.3462,-0.2891,-0.3923,-50.2777,67.5354,286.5295
3.442247986,3.444711089,-4.3462,-0.2891,-0.3923,-50.2777,67.5354,286.5295
3.446324944,3.449044108,-4.3462,-0.2891,-0.3923,-50.2777,67.5354,286.5295
3.449998975,3.453121066,-4.3462,-0.2891,-0.3923,-20.5078,33.1573,281.1737
3.453658938,3.456103921,-3.2881,0.7234,-0.73,-20.5078,33.1573,281.1737
3.457303881,3.460113883,-3.2881,0.7234,-0.73,-20.5078,33.1573,281.1737
3.461135983,3.4634341,-3.2881,0.7234,-0.73,-14.7552,-1.0223,293.9758
3.46451509,3.466821074,-3.2881,0.7234,-0.73,-14.7552,-1.0223,293.9758
3.468445897,3.472950101,-3.2881,0.7234,-0.73,-8.3923,-34.8969,239.8224
3.474039912,3.476467967,-2.0811,-2.6038,-1.4695,-8.3923,-34.8969,239.8224
3.477573037,3.480128884,-2.0811,-2.6038,-1.4695,-8.3923,-34.8969,239.8224
3.482468009,3.484772086,-2.0811,-2.6038,-1.4695,5.5237,-43.3502,158.9203
3.486451029,3.488747,-2.0811,-2.6038,-1.4695,5.5237,-43.3502,158.9203
3.489740967,3.49296391,-2.0811,-2.6038,-1.4695,5.5237,-43.3502,155.014
3.493491053,3.49623096,-1.1436,-0.437,-1.1326,72.4335,-39.7034,153.595
3.497216105,3.499685883,-1.1426,-0.437,-1.1326,72.4335,-39.7034,153.595
3.500865102,3.503893017,-1.1426,-0.437,-1.1326,72.4335,-39.7034,107.666
3.506292939,3.508717894,-1.1426,-0.437,-1.1326,128.9825,-12.5885,107.666
3.509931922,3.513150096,-1.1426,-0.437,-1.1326,128.9825,-12.5885,107.666
3.5136801,3.51600492,-0.8301,-1.1731,-0.2957,66.7877,3.0823,-4.6234
3.517176032,3.519523978,-0.8254,-1.1731,-0.2957,66.7877,3.0823,-4.6234
3.520609021,3.522911906,-0.8254,-1.1731,-0.2957,66.7877,3.0823,-4.6234
3.524011969,3.526807904,-0.8254,-1.1731,-0.2957,0.3815,-0.4578,-80.2307
3.528977036,3.532899022,-0.8254,-1.1731,-0.2957,1.8616,-0.4578,-80.2307
3.535770058,3.538066983,-0.6775,-0.0759,-0.5767,-37.7655,-4.7302,-132.843
3.539190888,3.541493058,-0.6775,-0.0759,-0.5767,-37.7655,-4.7302,-132.843
3.543255925,3.546567082,-0.6775,-0.0759,-0.5767,-37.7655,-4.7302,-132.843
3.548344016,3.55085504,-0.6775,-0.0759,-0.5767,-70.9839,-9.4147,-173.0347
3.55262196,3.555018067,-0.6775,-0.0759,-0.5767,-70.9839,-9.4147,-173.0347
3.555547118,3.558474898,-0.7397,-0.0867,-0.4343,-70.9839,-9.4147,-195.0684
3.559712052,3.562008977,-0.7397,-0.0867,-0.4343,-85.7849,-9.6893,-195.0684
3.563507914,3.565808892,-0.7397,-0.0867,-0.4343,-85.7849,-9.6893,-195.0684
3.566955924,3.570566058,-0.7397,-0.0867,-0.4343,-74.0662,-7.019,-193.7561
3.572181105,3.57496798,-0.7397,-0.0867,-0.4343,-71.5027,-7.019,-193.7561
3.576681971,3.578978896,-0.6965,-0.04,-0.0898,-71.5027,-7.019,-193.7561
3.579987883,3.582985043,-0.6965,-0.04,-0.0898,-34.1949,-3.9368,-180.542
3.584572911,3.587469935,-0.6965,-0.04,-0.0898,-34.1949,-3.9368,-180.542
3.588442921,3.591307044,-0.6965,-0.04,-0.0898,-34.1949,-3.9368,-162.6587
3.592405915,3.595778107,-0.6965,-0.04,-0.0898,4.6234,-4.2419,-162.6587
3.596953034,3.599289059,-0.4824,0.8521,0.0916,4.6234,-4.2419,-162.6587
3.60159409,3.603886962,-0.4824,0.8521,0.0916,34.5764,-4.0436,-137.7563
3.605697989,3.607996106,-0.4824,0.8521,0.0916,34.5764,-4.0436,-137.7563
3.609708905,3.612006068,-0.4824,0.8521,0.0916,34.5764,-4.0436,-137.7563
3.61313498,3.616268992,-0.4824,0.8521,0.2234,48.0499,-4.8828,-106.5369
3.617931008,3.621079087,0.2478,1.2581,0.2234,48.0499,-4.8828,-106.5369
3.62254703,3.6250211,0.2478,1.2581,0.2234,48.584,-9.3079,-71.9452
3.627097964,3.629398942,0.2478,1.2581,0.2234,48.584,-9.3079,-71.9452
3.630591988,3.632883906,0.2478,1.2581,0.2234,48.584,-9.3079,-71.9452
3.635039925,3.637525916,1.1287,0.999,0.1841,38.9862,-12.5122,-35.7971
3.638692021,3.641533017,1.1287,0.999,0.1841,38.9862,-12.5122,-35.7971
3.643284917,3.646177888,1.1287,0.999,0.1841,38.9862,-12.5122,-0.6866
3.647352099,3.649983048,1.1287,0.999,0.1841,29.5258,-5.0049,-0.6866
3.651114106,3.654395938,1.1287,0.999,0.1841,29.5258,-5.0049,-0.6866
3.655346036,3.65815103,0.4683,0.6912,0.1355,15.4114,-1.9836,25.3296
3.659117102,3.661915898,0.4683,0.6912,0.1355,15.4114,-1.9836,25.3296
3.662989974,3.665281892,0.4683,0.6912,0.1355,15.4114,-1.9836,25.3296
3.666447997,3.668743968,0.4683,0.6912,0.1355,1.9684,-3.4332,42.5262
3.669943928,3.672234893,0.4683,0.6912,0.1355,1.9684,-3.4332,42.5262
3.673102975,3.675680041,0.4683,0.6912,0.1355,1.9684,-3.4332,42.5262
3.676205992,3.679101109,0.1116,0.4651,0.1294,1.9684,-3.4332,53.9398
3.680329919,3.682963013,0.1116,0.4651,0.1294,-9.9182,-3.2043,53.9398
3.683911919,3.686283946,0.1116,0.4651,0.1294,-9.9182,-3.2043,53.9398
3.687445998,3.690386891,0.1116,0.4651,0.1294,-21.637,-2.7161,60.5469
3.69157207,3.694348931,0.1116,0.4651,0.1294,-21.5302,-2.7161,60.5469
3.695334077,3.697627902,-0.021,0.2283,0.0972,-21.5302,-2.7161,60.5469
3.699482083,3.702380061,-0.021,0.2283,0.0972,-31.3873,-3.1738,64.1479
3.703580975,3.706479907,-0.021,0.2283,0.0972,-31.3873,-3.1738,64.1479
3.707479119,3.709776997,-0.021,0.2283,0.0972,-31.3873,-3.1738,64.1479
3.710955977,3.713859915,-0.021,0.2283,0.0972,-40.6036,-5.0049,65.2771
3.714938998,3.718654036,-0.1069,-0.0276,0.0432,-40.6036,-5.0049,65.2771
3.719535947,3.722005009,-0.1069,-0.0276,0.0432,-40.6036,-5.0049,64.27
3.723228097,3.726192116,-0.1069,-0.0276,0.0432,-44.1284,-6.9427,64.27
3.72725904,3.729580044,-0.1069,-0.0276,0.0432,-44.1284,-6.9427,64.27
3.731871962,3.734167933,-0.1069,-0.0276,0.0432,-41.1835,-8.6517,61.3708
3.735108018,3.737510085,-0.2227,-0.175,0.03,-41.1835,-8.6517,61.3708
3.739220023,3.742965102,-0.2227,-0.175,0.03,-41.1835,-8.6517,61.3708
3.744188904,3.746481061,-0.2227,-0.175,0.03,-40.4968,-9.2773,55.603
3.748190999,3.750518918,-0.2227,-0.175,0.03,-40.4968,-9.2773,55.603
3.751645922,3.754902005,-0.2227,-0.175,0.03,-40.4968,-9.2773,47.7905
3.755837083,3.758711934,-0.2861,-0.1763,0.0095,-45.2423,-9.4604,49.2554
3.760681033,3.762977957,-0.2861,-0.1763,0.0095,-45.2423,-9.4604,49.2554
3.76407206,3.766369939,-0.2861,-0.1763,0.0095,-51.6663,-10.437,41.748
3.767474055,3.770321011,-0.2861,-0.1763,0.0095,-51.6663,-10.437,41.748
3.771323085,3.774305939,-0.2861,-0.1763,0.0095,-51.6663,-10.437,41.748
3.775483012,3.779014945,-0.229,-0.1907,-0.05,-53.8788,-10.8032,34.9884
3.780084014,3.782867074,-0.229,-0.1907,-0.05,-53.8788,-10.8032,34.9884
3.783883929,3.786421895,-0.229,-0.1907,-0.05,-53.8788,-10.8032,34.9884
3.787820935,3.790123105,-0.229,-0.1907,-0.05,-56.2286,-12.0392,30.5481
3.791780114,3.794073939,-0.229,-0.1907,-0.05,-56.2286,-12.0392,30.5481
3.79557693,3.797869086,-0.1299,-0.1079,-0.1052,-56.2286,-12.0392,30.5481
3.799394965,3.801878094,-0.1299,-0.1079,-0.1052,-57.2052,-13.1836,28.4729
3.803549885,3.805851102,-0.1299,-0.1079,-0.1052,-57.2052,-13.1836,28.4729
3.806686997,3.810128092,-0.1299,-0.1079,-0.1052,-55.2673,-13.5498,26.6266
3.811867118,3.814892888,-0.1299,-0.1079,-0.1052,-55.2673,-13.5498,26.6266
3.816067099,3.819096923,-0.0664,-0.0837,-0.1199,-55.2673,-13.5498,26.6266
3.821028113,3.823454022,-0.0664,-0.0837,-0.1199,-48.2941,-13.5345,24.3378
3.824410081,3.827288031,-0.0664,-0.0837,-0.1199,-48.2941,-13.5345,24.3378
3.828461051,3.830814957,-0.0664,-0.0837,-0.1199,-48.2941,-13.5345,21.9574
3.832013011,3.835456967,-0.0664,-0.0837,-0.1199,-43.1519,-13.1683,21.9574
3.837009072,3.839430928,-0.1157,0.0894,-0.0693,-43.1519,-13.1683,21.9574
3.839968085,3.842424988,-0.1157,0.0894,-0.0693,-43.1519,-12.3444,19.8517
3.843382001,3.845882058,-0.1157,0.0894,-0.0693,-43.457,-12.3444,19.8517
3.846768021,3.849069953,-0.1157,0.0894,-0.0693,-43.457,-12.3444,19.8517
3.850046038,3.854000926,-0.1157,0.0894,-0.0693,-43.457,-8.4381,20.3094
3.855095029,3.857390046,-0.1782,0.0996,-0.1614,-47.4701,-10.6354,20.3094
3.858565926,3.862103104,-0.1875,0.0996,-0.1614,-47.4701,-10.6354,20.3094
3.863088965,3.866046071,-0.1875,0.0996,-0.1614,-49.7437,-8.2245,18.4479
3.867015958,3.87007606,-0.1875,0.0996,-0.1614,-49.7437,-8.2245,18.4479
3.87124598,3.87414205,-0.1875,0.0996,-0.1614,-49.7437,-8.2245,18.4479
3.875759005,3.878050923,-0.2268,0.0513,-0.1038,-48.6298,-6.8207,15.4419
3.879003882,3.88181889,-0.2268,0.0513,-0.1038,-48.6298,-6.8207,15.4419
3.883307099,3.88560307,-0.2268,0.0513,-0.1038,-48.6298,-6.8207,11.9629
3.886808991,3.89012897,-0.2268,0.0513,-0.1038,-47.8363,-6.0425,11.9629
3.891962886,3.894260049,-0.2268,0.0513,-0.1038,-47.8363,-6.0425,11.9629
3.895945906,3.898240924,-0.2036,0.0862,-0.2651,-55.4504,-3.3112,7.1716
3.899323106,3.902210116,-0.2036,0.0862,-0.2651,-55.4504,-3.3112,7.1716
3.903840899,3.906134009,-0.2036,0.0862,-0.2651,-55.4504,-3.3112,7.1716
3.907942891,3.910936951,-0.2036,0.0862,-0.2651,-40.9546,1.0834,-1.0529
3.912607073,3.914898991,-0.2036,0.0862,-0.2651,-40.9546,1.0834,-1.0529
3.916631102,3.918938994,-1.1399,-5.5439,-0.9263,-55.7709,24.0631,-73.2269
3.920061946,3.922697901,-1.1399,-5.5439,-0.9263,-55.7709,24.0631,-73.2269
3.924436927,3.926730036,-1.1399,-5.5439,-0.9263,-55.7709,24.0631,-73.2269
3.927929043,3.930900931,-1.1399,-5.5439,-0.9263,-83.3435,83.5724,-416.8396
3.93205893,3.934352994,-1.1399,-5.5439,-0.9263,-83.3435,83.5724,-416.8396
3.935416102,3.938141942,-5.8245,4.6663,1.448,-83.3435,83.5724,-416.8396
3.940363049,3.942664981,-5.8245,4.6663,1.448,-49.5148,-48.8739,-192.6727
3.943678021,3.945978045,-5.8245,4.6663,1.448,-49.5148,-48.8739,-192.6727
3.946860909,3.949154973,-5.8245,4.6663,1.448,-49.5148,-48.8739,-192.6727
3.949994921,3.953883052,-5.8245,4.6663,1.448,336.5326,43.9911,-56.8237
3.954852938,3.957147956,-5.8245,2.7288,-1.7156,336.5326,43.9911,-56.8237
3.958310008,3.9606601,-4.4824,2.7041,-1.7156,336.5326,43.9911,-56.8237
3.961819052,3.964111924,-4.4824,2.7041,-1.7156,274.6124,-42.8009,-101.5625
3.965655923,3.968774914,-4.4824,2.7041,-1.7156,274.6124,-42.8009,-101.5625
3.969803929,3.972102046,-4.4824,2.7041,-1.7156,274.6124,-42.8009,-101.5625
3.973898053,3.976198077,-4.4824,2.7041,-1.7156,123.3368,-23.056,-131.4545
3.977166056,3.979563117,-4.4722,-0.2048,2.502,123.3368,-23.056,-131.4545
3.980795026,3.984212994,-4.4722,-0.2048,2.502,-1.6632,-67.5507,-137.7411
3.985227942,3.988720059,-4.4722,-0.2048,2.502,-1.0223,-67.5507,-137.7411
3.990488887,3.992994904,-4.4722,-0.2048,2.502,-1.0223,-67.5507,-137.7411
3.994685054,3.996981978,-4.4722,-0.2048,-0.373,-44.22,-98.2208,-131.897
3.999417901,4.001717925,-3.0127,-0.3989,-0.3396,-44.22,-98.2208,-131.897
4.003444075,4.005803942,-3.0127,-0.3989,-0.3396,-44.22,-91.5527,-128.1891
4.006334901,4.008968949,-3.0127,-0.3989,-0.3396,-52.2003,-91.5527,-128.1891
4.009973883,4.01228702,-3.0127,-0.3989,-0.3396,-52.2003,-91.5527,-128.1891
4.013924956,4.016481042,-3.0127,-0.3989,-0.3396,-52.2003,-72.0215,-114.1205
4.018001914,4.020336985,0.083,-0.689,-0.8833,-48.0347,-71.2891,-114.1205
4.021587968,4.023882031,0.083,-0.689,-0.8833,-48.0347,-71.2891,-114.1205
4.026585936,4.028881907,0.083,-0.689,-0.8833,-26.0315,-40.39,-73.9594
4.030124068,4.032908082,0.083,-0.689,-0.8833,-26.0315,-40.39,-73.9594
4.034025073,4.036449074,0.083,-0.689,-0.8833,-26.0315,-40.39,-73.9594
4.037632107,4.040103078,0.7932,-1.7671,0.2793,-18.3258,-15.2283,-40.9698
4.041179061,4.044074893,0.7932,-1.7671,0.2793,-18.3258,-15.2283,-40.9698
4.044613003,4.048427939,0.7932,-1.7671,0.2793,-18.3258,-15.2283,-40.9698
4.048965096,4.051351905,0.7932,-1.7671,0.2793,3.5553,2.243,1.3428
4.052365899,4.054659962,0.7932,-1.7671,0.2793,3.5553,2.243,1.3428
4.055781007,4.058076977,-0.5193,-0.9001,0.7412,3.5553,2.243,1.3428
4.058997988,4.061667084,-0.5491,-0.9001,0.7412,36.1023,9.4604,53.7262
4.062965035,4.065512061,-0.5491,-0.9001,0.7412,36.1023,9.4604,53.7262
4.066539883,4.070126891,-0.5491,-0.9001,0.7412,36.1023,9.4604,53.7262
4.071292042,4.073582053,-0.5491,-0.9001,0.7412,25.6958,7.7667,71.7468
4.075213074,4.077509999,-0.5491,-0.9001,-0.3169,25.6958,7.7667,71.7468
4.078611016,4.081047892,-1.4221,-0.4414,-0.3169,25.6958,7.7667,71.7468
4.082174897,4.085003018,-1.4221,-0.4414,-0.3169,3.4485,7.6904,74.6002
4.08731997,4.091358065,-1.4221,-0.4414,-0.3169,3.4485,7.6904,74.6002
4.092659115,4.094947934,-1.4221,-0.4414,-0.3169,-8.1329,16.4185,78.5217
4.09742701,4.099732995,-1.4104,-0.345,-0.3789,-8.1329,16.4185,78.5217
4.1008569,4.103736996,-1.4104,-0.345,-0.3789,-8.1329,28.1372,78.8422
4.104900956,4.107196927,-1.4104,-0.345,-0.3789,-16.0217,27.7405,78.8422
4.108215928,4.112280965,-1.4104,-0.345,-0.3789,-16.0217,27.7405,78.8422
4.113263964,4.115558028,-1.4104,-0.345,-0.3789,-28.0762,35.4004,74.6613
4.116680026,4.119598984,-1.325,-0.4487,-0.0029,-28.0762,35.4004,74.6613
4.121369004,4.123792052,-1.325,-0.4487,-0.0029,-28.0762,35.4004,74.6613
4.124800086,4.127518058,-1.325,-0.4487,-0.0029,-36.3007,33.0658,74.0204
4.128699898,4.131662965,-1.325,-0.4487,-0.0029,-36.3007,33.0658,74.0204
4.132821917,4.135724902,-1.325,-0.4487,-0.0029,-36.3007,33.0658,74.0204
4.136897921,4.139195084,-1.0554,-0.4614,-0.1072,-33.9966,23.7885,78.7964
4.140438914,4.143005013,-1.0554,-0.4614,-0.1072,-33.9966,23.7885,78.7964
4.143926978,4.147410035,-1.0554,-0.4614,-0.1072,-33.9966,12.0697,82.55
4.148475051,4.151676058,-1.0554,-0.4614,-0.1072,-29.3732,15.3351,82.55
4.153446078,4.156550049,-1.0554,-0.4614,-0.1072,-29.3732,15.3351,82.55
4.158201098,4.160503983,-0.8828,-0.311,-0.2659,-28.4424,6.5155,79.2847
4.161527037,4.163819909,-0.8828,-0.311,-0.2659,-28.4424,6.5155,79.2847
4.166411042,4.169356942,-0.8828,-0.311,-0.2659,-28.4424,-1.4343,71.228
4.171114087,4.173410058,-0.8828,-0.311,-0.2659,-29.068,-1.4343,71.228
4.174434066,4.17672193,-0.8828,-0.311,-0.2659,-29.068,-1.4343,71.228
4.178809046,4.181110024,-0.9048,-0.3428,-0.3237,-26.5045,-4.7607,66.0095
4.182901025,4.185623049,-0.9048,-0.3428,-0.3237,-26.5045,-4.7607,66.0095
4.18680489,4.189726948,-0.9048,-0.3428,-0.3237,-26.5045,-4.7607,66.0095
4.190905928,4.194194913,-0.9048,-0.3428,-0.3237,-22.1405,-6.958,60.7605
4.195799946,4.198229909,-0.9048,-0.2803,-0.3176,-22.1405,-6.958,60.7605
4.200015902,4.202839017,-0.8691,-0.283,-0.3176,-19.2719,-8.2245,53.9246
4.204387068,4.20687592,-0.8691,-0.283,-0.3176,-19.2719,-8.2245,53.9246
4.207881093,4.210457921,-0.8691,-0.283,-0.3176,-19.2719,-8.2245,53.9246
4.211643099,4.215025067,-0.8691,-0.283,-0.3176,-16.51,-8.6975,46.2799
4.215550065,4.217877984,-0.8691,-0.283,-0.2539,-16.51,-8.6975,46.2799
4.21886003,4.221468091,-0.8745,-0.2058,-0.2539,-16.51,-8.6975,46.2799
4.223343014,4.225644946,-0.8745,-0.2058,-0.2539,-15.0299,-9.201,37.2772
4.226724982,4.230802893,-0.8745,-0.2058,-0.2539,-15.0299,-9.201,37.2772
4.231771111,4.23406589,-0.8745,-0.2058,-0.2539,-15.0299,-9.201,29.4647
4.235731005,4.238031983,-0.8745,-0.2058,-0.1985,-14.389,-9.3079,28.6865
4.239201903,4.241488099,-0.8921,-0.2253,-0.1985,-14.389,-9.3079,28.6865
4.244473099,4.248918891,-0.8921,-0.2253,-0.1985,-15.152,-8.8959,20.1416
4.250158906,4.252522111,-0.8921,-0.2253,-0.1985,-15.152,-8.8959,20.1416
4.253725886,4.257131934,-0.8921,-0.2253,-0.1985,-13.0463,-8.5602,12.1307
4.258252024,4.261562943,-0.8796,-0.3062,-0.1394,-13.0463,-8.5602,12.1307
4.262627959,4.265518069,-0.8796,-0.3062,-0.1394,-13.0463,-8.5602,12.1307
4.266487002,4.269084096,-0.8796,-0.3062,-0.1394,-9.3231,-7.431,6.1493
4.271042943,4.273331046,-0.8796,-0.3062,-0.1394,-9.3231,-7.431,6.1493
4.274469018,4.276759028,-0.8796,-0.3062,-0.1394,-9.3231,-7.431,6.1493
4.27791202,4.281101107,-0.8865,-0.3372,-0.1357,-3.7537,-6.6833,1.0223
4.282022118,4.284427046,-0.8865,-0.3372,-0.1357,-3.7537,-6.6833,1.0223
4.285391926,4.287707925,-0.8865,-0.3372,-0.1357,-3.7537,-6.6833,1.0223
4.288792967,4.291096091,-0.8865,-0.3372,-0.1357,2.4261,-5.5084,-3.0518
4.292031884,4.294329047,-0.8865,-0.3372,-0.1357,2.4261,-5.5084,-3.0518
4.295093894,4.29738605,-0.8865,-0.3372,-0.1357,2.4261,-5.5084,-3.0518
4.298193097,4.300504088,-0.9431,-0.2915,-0.1758,8.4534,-5.4169,-7.8888
4.301358103,4.303654074,-0.9431,-0.2915,-0.1758,8.4534,-5.4169,-7.8888
4.304884076,4.308141112,-0.9431,-0.2915,-0.1758,8.4534,-5.4169,-7.8888
4.309146046,4.311481118,-0.9431,-0.2915,-0.1758,13.1836,-5.1117,-13.6261
4.313109994,4.315413117,-0.9431,-0.2915,-0.1758,13.1836,-5.1117,-13.6261
4.31716907,4.319515109,-1.009,-0.2109,-0.2715,13.1836,-5.1117,-13.6261
4.321208119,4.323502898,-1.009,-0.2109,-0.2715,15.6097,-4.5319,-19.7449
4.325737118,4.328031897,-1.009,-0.2109,-0.2715,15.6097,-4.5319,-19.7449
4.329208016,4.331766963,-1.009,-0.2109,-0.2715,15.6097,-4.5319,-19.7449
4.334103942,4.336402058,-1.009,-0.2109,-0.2715,14.8621,-4.1656,-25.2228
4.337495923,4.339912057,-1.0999,-0.281,-0.3335,14.8621,-4.1656,-25.2228
4.341065049,4.343364119,-1.0999,-0.281,-0.3335,14.8621,-4.1656,-27.9388
4.345003962,4.347652077,-1.0999,-0.281,-0.3335,11.8408,-4.6844,-27.9388
4.349382043,4.352310061,-1.0999,-0.281,-0.3335,11.8408,-4.6844,-27.9388
4.353947043,4.358527064,-1.0999,-0.281,-0.3335,10.91,-6.7291,-28.244
4.359567046,4.36222589,-1.2256,-0.2534,-0.2842,10.91,-6.7291,-28.244
4.363334059,4.365667939,-1.2256,-0.2534,-0.2842,14.8163,-8.3008,-26.062
4.36619699,4.368713021,-1.2256,-0.2534,-0.2842,11.8561,-8.3008,-26.062
4.369861006,4.372152924,-1.2256,-0.2534,-0.2842,11.8561,-8.3008,-26.062
4.373307109,4.375917077,-1.2256,-0.2534,-0.2842,11.8561,-8.3008,-26.062
4.378090977,4.381209016,-1.2305,-0.3213,-0.2058,9.4604,-9.1248,-25.4669
4.382372021,4.384664893,-1.2305,-0.3213,-0.2058,9.4604,-9.1248,-25.4669
4.385821938,4.388121009,-1.2305,-0.3213,-0.2058,6.2866,-8.4534,-24.3988
4.389073014,4.391553044,-1.2305,-0.3213,-0.2058,6.2866,-8.4534,-24.3988
4.393452048,4.395739913,-1.2305,-0.3213,-0.2058,6.2866,-8.4534,-24.3988
4.397467017,4.400077939,-1.2559,-0.4075,-0.0564,3.067,-7.9956,-20.5688
4.401167988,4.404777884,-1.2559,-0.4075,-0.0564,3.067,-7.9956,-20.5688
4.405892014,4.408271908,-1.2559,-0.4075,-0.0564,3.067,-7.9956,-20.5688
4.409447074,4.412334084,-1.2559,-0.4075,-0.0564,-0.6104,-8.7585,-16.3422
4.413499951,4.415943026,-1.2559,-0.4075,-0.0564,-0.6104,-8.7585,-16.3422
4.417137026,4.420834899,-1.1309,-0.3916,-0.0933,-0.6104,-7.843,-12.4969
4.422484994,4.424780965,-1.1479,-0.3916,-0.0933,-5.4321,-7.843,-12.4969
4.426547885,4.428845048,-1.1479,-0.3916,-0.0933,-5.4321,-7.843,-12.4969
4.430046916,4.432938933,-1.1479,-0.3916,-0.0933,-10.2997,-6.134,-8.3923
4.435260892,4.437560916,-1.1479,-0.3916,-0.0933,-10.2997,-6.134,-8.3923
4.439201951,4.441661,-1.0288,-0.4551,-0.158,-10.2997,-2.2278,-3.1128
4.442772031,4.445073008,-1.0288,-0.4551,-0.158,-12.558,-3.3264,-3.1128
4.446045994,4.448351979,-1.0288,-0.4551,-0.158,-12.558,-3.3264,-3.1128
4.451389908,4.45404303,-1.0288,-0.4551,-0.158,-11.1847,0.6104,2.9297
4.456878066,4.46084702,-1.0288,-0.4551,-0.1467,-11.1847,0.6104,2.9297
4.462015986,4.464312911,-1.0059,-0.4963,-0.1467,-8.9417,4.2725,9.7198
4.465375066,4.467666983,-1.0059,-0.4963,-0.1467,-8.9417,4.2725,9.7198
4.468480944,4.47083199,-1.0059,-0.4963,-0.1467,-8.9417,4.2725,9.7198
4.471715092,4.474002957,-1.0059,-0.4963,-0.1467,-8.9417,4.2725,16.5253
4.474870085,4.477165103,-1.0059,-0.4963,-0.1467,-6.3324,7.843,16.5253
4.47798407,4.480385899,-0.9978,-0.4778,-0.1301,-6.3324,7.843,16.5253
4.481166005,4.483455062,-0.9978,-0.4778,-0.1301,-6.3324,7.843,16.5253
4.484321952,4.486616969,-0.9978,-0.4778,-0.1301,-5.2032,10.5743,22.9645
4.487491011,4.489798903,-0.9978,-0.4778,-0.1301,-5.2032,10.5743,22.9645
4.490656018,4.492946982,-0.9978,-0.4778,-0.1301,-5.2032,10.5743,22.9645
4.493817925,4.496117949,-0.9978,-0.4778,-0.1301,-5.2032,14.4806,29.1443
4.496991038,4.499329924,-0.9978,-0.4153,-0.1504,-2.9449,12.6495,29.1443
4.500271916,4.503188014,-1.0161,-0.4248,-0.1504,-2.9449,12.6495,29.1443
4.503969073,4.506259083,-1.0161,-0.4248,-0.1504,-2.9449,12.6495,29.1443
4.507073044,4.509372115,-1.0161,-0.4248,-0.1504,-1.4496,14.8163,34.2255
4.510268092,4.51256001,-1.0161,-0.4248,-0.1504,-1.4496,14.8163,34.2255
4.513399005,4.515695929,-1.0161,-0.4248,-0.1504,-1.4496,14.8163,34.2255
4.516579985,4.518873095,-1.0161,-0.4248,-0.1504,-2.655,16.0522,37.0789
4.519758105,4.52205503,-0.9922,-0.3958,-0.1726,-2.655,16.0522,37.0789
4.522896886,4.525190949,-0.9922,-0.3958,-0.1726,-2.655,16.0522,37.0789
4.526018023,4.52831304,-0.9922,-0.3958,-0.1726,-2.655,16.0522,40.9851
4.529200911,4.531510949,-0.9922,-0.3958,-0.1726,-2.2888,17.334,39.2456
4.532393098,4.534695983,-0.9922,-0.3958,-0.1726,-2.2888,17.334,39.2456
4.535543084,4.537839055,-0.9922,-0.3958,-0.1726,-2.2888,17.334,39.2456
4.538631081,4.541171908,-1.0071,-0.3596,-0.1831,-0.7172,18.3868,40.7104
4.542053103,4.544350028,-1.0071,-0.3596,-0.1831,-0.7172,18.3868,40.7104
4.545133948,4.547601103,-1.0071,-0.3596,-0.1831,-0.7172,18.3868,40.7104
4.549078107,4.55210793,-1.0071,-0.3596,-0.1831,1.6785,19.6991,41.9464
4.554295897,4.557954907,-1.0071,-0.3596,-0.1831,1.6785,19.6991,41.9464
4.558829903,4.563957095,-1.0603,-0.2781,-0.21,3.9215,19.6228,41.9922
4.56479609,4.567801118,-1.0603,-0.2781,-0.21,3.9215,19.6228,41.9922
4.568658948,4.57100594,-1.0603,-0.2781,-0.21,3.9215,19.6228,41.9922
4.571914077,4.574211001,-1.0603,-0.2781,-0.21,3.1433,18.2953,40.2069
4.575046897,4.577343106,-1.0603,-0.2781,-0.21,3.1433,18.2953,40.2069
4.57823503,4.580531001,-1.103,-0.2234,-0.3032,3.1433,18.2953,40.2069
4.581363082,4.583744883,-1.103,-0.2234,-0.3032,3.1433,17.3187,38.0402
4.584621072,4.586907029,-1.103,-0.2234,-0.3032,1.3733,17.3187,38.0402
4.58773911,4.590119958,-1.103,-0.2234,-0.3032,1.3733,17.3187,38.0402
4.590982079,4.593371987,-1.103,-0.2234,-0.3032,1.3733,17.3187,38.0402
4.594255089,4.596548915,-1.103,-0.2234,-0.3032,0.7782,16.037,35.2325
4.59743011,4.599732041,-1.103,-0.2473,-0.2761,0.7782,16.037,35.2325
4.600597024,4.602975011,-1.0576,-0.2473,-0.2761,0.7782,16.037,35.2325
4.603803038,4.606097102,-1.0576,-0.2473,-0.2761,0.7629,14.3433,31.8298
4.606968045,4.609429955,-1.0576,-0.2473,-0.2761,0.7629,14.3433,31.8298
4.610308051,4.612630009,-1.0576,-0.2473,-0.2761,0.7629,14.3433,31.8298
4.61344397,4.61573708,-1.0576,-0.2473,-0.2761,0.7629,14.3433,28.8696
4.616612076,4.618913054,-1.0576,-0.2473,-0.2761,1.5106,12.7869,28.8696
4.6198951,4.622190118,-1.0186,-0.2725,-0.2451,1.5106,12.7869,28.8696
4.62302792,4.625327944,-1.0186,-0.2725,-0.2451,1.5106,12.7869,28.8696
4.626159072,4.628450036,-1.0186,-0.2725,-0.2451,3.0212,11.4136,25.6042
4.629391074,4.631682992,-1.0186,-0.2725,-0.2451,3.0212,11.4136,25.6042
4.632536053,4.634833932,-1.0186,-0.2725,-0.2451,3.0212,11.4136,25.6042
4.635666012,4.637956023,-1.0186,-0.2725,-0.2451,3.0212,11.4136,22.4457
4.638829112,4.641133904,-0.9417,-0.2722,-0.2617,4.6234,10.5591,22.4457
4.641970038,4.644269108,-0.9417,-0.2722,-0.2617,4.6234,10.5591,22.4457
4.645041108,4.647331118,-0.9417,-0.2722,-0.2617,4.6234,10.5591,22.4457
4.648199916,4.650653958,-0.9417,-0.2722,-0.2617,4.303,10.3912,19.8364
4.651490092,4.653786063,-0.9417,-0.2722,-0.2617,4.303,10.3912,19.8364
4.65467298,4.656964898,-0.9417,-0.2722,-0.2617,4.303,10.3912,19.8364
4.657779097,4.660217881,-0.9417,-0.2961,-0.2737,4.303,10.6354,17.807
4.661085963,4.663376927,-0.9175,-0.2961,-0.2737,4.8981,10.6354,17.807
4.664208054,4.667193055,-0.9175,-0.2961,-0.2737,4.8981,10.6354,17.807
4.668058037,4.670345902,-0.9175,-0.2961,-0.2737,4.8981,10.6354,16.51
4.671193003,4.673488021,-0.9175,-0.2961,-0.2737,7.1259,10.5133,16.51
4.674337029,4.676634907,-0.9175,-0.2961,-0.2737,7.1259,10.5133,16.51
4.677498936,4.679797053,-0.9175,-0.2336,-0.3135,7.1259,10.5133,16.51
4.680657983,4.682958007,-0.9829,-0.241,-0.3135,8.8043,9.5062,14.8773
4.683767914,4.686062932,-0.9829,-0.241,-0.3135,8.8043,9.5062,14.8773
4.686941981,4.689231038,-0.9829,-0.241,-0.3135,8.8043,9.5062,14.8773
4.690111994,4.692407012,-0.9829,-0.241,-0.3135,8.8043,9.5062,13.2599
4.69334805,4.695644021,-0.9829,-0.241,-0.3135,9.6588,9.1248,13.2599
4.696524977,4.698814988,-0.9829,-0.241,-0.3135,9.6588,9.1248,13.2599
4.699719071,4.702012896,-1.0598,-0.2324,-0.3042,9.6588,9.1248,13.2599
4.702889085,4.705179095,-1.0598,-0.2324,-0.3042,10.2997,8.6823,11.2
4.706054091,4.708350062,-1.0598,-0.2324,-0.3042,10.2997,8.6823,11.2
4.709215998,4.711587071,-1.0598,-0.2324,-0.3042,10.2997,8.6823,11.2
4.712422013,4.714712977,-1.0598,-0.2324,-0.3042,11.4136,8.0109,9.5367
4.715491891,4.717789054,-1.0598,-0.2324,-0.3042,11.4136,8.0109,9.5367
4.71866405,4.721115946,-1.125,-0.1726,-0.2727,11.4136,8.0109,9.5367
4.721950888,4.724243998,-1.125,-0.1726,-0.2727,11.4136,8.0109,9.5367
4.72510302,4.727408051,-1.125,-0.1726,-0.2727,10.3912,6.6223,7.6904
4.728278041,4.730636954,-1.125,-0.1726,-0.2727,10.3912,6.6223,7.6904
4.731507897,4.733806967,-1.125,-0.1726,-0.2727,10.3912,6.6223,7.6904
4.734643101,4.736940026,-1.125,-0.1726,-0.2727,7.1411,5.0049,5.6152
4.737697959,4.740079045,-1.125,-0.1726,-0.2881,7.1411,5.0049,5.6152
4.740937113,4.743236899,-1.1296,-0.178,-0.2881,7.1411,5.0049,5.6152
4.7440449,4.746341109,-1.1296,-0.178,-0.2881,7.1411,5.0049,5.6152
4.747151017,4.749640107,-1.1296,-0.178,-0.2881,4.2267,3.9368,3.7842
4.750510096,4.752808928,-1.1296,-0.178,-0.2881,4.2267,3.9368,3.7842
4.753630995,4.758556008,-1.1296,-0.178,-0.2881,4.2267,3.067,3.54
4.759427905,4.763757109,-1.0891,-0.2529,-0.2993,3.5095,3.067,3.54
4.764643073,4.770307898,-1.0891,-0.2529,-0.2993,5.1727,3.7537,4.6234
4.77108705,4.773525119,-1.0891,-0.2529,-0.2993,5.1727,3.7537,4.6234
4.774037957,4.777423024,-1.0891,-0.2529,-0.2993,5.1727,3.7537,4.6234
4.778305888,4.780830025,-1.1516,-0.2424,-0.229,7.6447,3.7994,6.3629
4.783342004,4.785646081,-1.1353,-0.2424,-0.229,7.6447,3.7994,6.3629
4.787277102,4.789569974,-1.1353,-0.2424,-0.229,7.6447,3.7994,6.3629
4.790571093,4.793314099,-1.1353,-0.2424,-0.229,8.6823,4.4708,7.1259
4.794263959,4.796549916,-1.1353,-0.2424,-0.229,8.6823,4.4708,7.1259
4.797596097,4.799922108,-1.1353,-0.2424,-0.229,8.6823,4.4708,7.1259
4.803053975,4.805352091,-1.1824,-0.1875,-0.2227,7.9193,3.2959,7.3853
4.806419015,4.809533,-1.1824,-0.1875,-0.2227,7.9193,3.2959,7.3853
4.810476899,4.813069939,-1.1824,-0.1875,-0.2227,5.127,2.0599,7.0801
4.81475389,4.817638993,-1.1824,-0.1875,-0.2227,5.127,2.0599,7.0801
4.81874907,4.821073889,-1.1545,-0.1907,-0.2905,5.127,2.0599,7.0801
4.821940064,4.825208068,-1.1545,-0.1907,-0.2905,3.6469,1.7548,5.9052
4.826696992,4.829304099,-1.1545,-0.1907,-0.2905,3.6469,1.7548,5.9052
4.831292987,4.833591103,-1.1545,-0.1907,-0.2905,3.6469,1.7548,5.9052
4.83514297,4.837437987,-1.1545,-0.1907,-0.2905,3.7079,2.3804,4.7302
4.839008927,4.841307044,-1.1521,-0.2253,-0.2854,3.7079,2.3804,4.7302
4.842363,4.845153928,-1.1521,-0.2253,-0.2854,3.7079,3.0823,3.8452
4.846475959,4.848775029,-1.1521,-0.2253,-0.2854,5.4169,3.0823,3.8452
4.849927067,4.852532029,-1.1521,-0.2253,-0.2854,5.4169,3.0823,3.8452
4.853707909,4.856586098,-1.1521,-0.2253,-0.2854,5.4169,3.0823,1.9684
4.857091069,4.862494111,-1.1521,-0.2253,-0.2854,9.6283,2.6398,1.9684
4.863484025,4.866993069,-1.2476,-0.1433,-0.2979,9.6283,2.6398,-2.4567
4.868075967,4.871496081,-1.2476,-0.1433,-0.2979,14.9384,0.9308,-2.4567
4.872681021,4.875402093,-1.2476,-0.1433,-0.2979,14.9384,0.9308,-2.4567
4.877837062,4.880261063,-1.2476,-0.1433,-0.3604,17.5629,-2.8992,-11.4594
4.881446004,4.883743882,-1.3379,0.042,-0.3159,17.5629,-2.8992,-11.4594
4.884857058,4.889105916,-1.3379,0.042,-0.3159,17.5629,-6.8054,-26.0925
4.890308976,4.892604947,-1.3379,0.042,-0.3159,17.0288,-7.5531,-26.0925
4.8937639,4.896937012,-1.3379,0.042,-0.3159,17.0288,-7.5531,-26.0925
4.898604989,4.90149796,-1.3379,0.0349,-0.3147,12.8632,-11.2762,-40.8936
4.90239799,4.904790044,-1.2078,0.0349,-0.3147,12.8632,-11.2762,-40.8936
4.906357884,4.909131884,-1.2078,0.0349,-0.3147,12.8632,-11.2762,-40.8936
4.910910964,4.91320908,-1.2078,0.0349,-0.3147,7.4463,-14.3738,-54.9927
4.914882064,4.917178988,-1.2078,0.0349,-0.3147,7.4463,-14.3738,-54.9927
4.918861985,4.921448111,-1.0203,-0.22,-0.3291,7.4463,-18.28,-65.1855
4.92317903,4.926570058,-1.0054,-0.22,-0.3291,5.0354,-15.8234,-65.1855
4.927550912,4.930195927,-1.0054,-0.22,-0.3291,5.0354,-15.8234,-65.1855
4.931762099,4.934055924,-1.0054,-0.22,-0.3291,9.201,-15.8844,-73.4863
4.935006976,4.937517047,-1.0054,-0.22,-0.3291,9.201,-15.8844,-73.4863
4.939309001,4.941603064,-0.6724,-0.2556,-0.3508,9.201,-15.8844,-73.4863
4.943342089,4.945741057,-0.6724,-0.2556,-0.3508,16.4337,-14.5721,-78.8574
4.946852088,4.949145913,-0.6724,-0.2556,-0.3508,16.4337,-14.5721,-78.8574
4.950353026,4.952654957,-0.6724,-0.2556,-0.3508,16.4337,-14.5721,-78.8574
4.953580022,4.955870986,-0.6724,-0.2556,-0.3508,21.5454,-14.6179,-86.5479
4.957024932,4.960545897,-0.6724,-0.2556,-0.3508,21.5454,-14.6179,-86.5479
4.962452054,4.964991927,-0.5503,-0.1343,-0.363,21.5454,-18.5242,-96.2067
4.96687901,4.969171881,-0.5503,-0.1343,-0.363,20.1416,-15.9454,-96.2067
4.971397996,4.973697066,-0.5503,-0.1343,-0.363,20.1416,-15.9454,-96.2067
4.974857926,4.97714889,-0.5503,-0.1343,-0.363,19.1498,-16.2964,-100.4639
4.978087067,4.980548024,-0.5503,-0.1343,-0.3005,19.1498,-16.2964,-100.4639
4.981527924,4.984418988,-0.8813,-0.2188,-0.303,19.1498,-16.2964,-100.4639
4.985587001,4.988691926,-0.8813,-0.2188,-0.303,16.0065,-13.7787,-100.5249
4.990132928,4.993138909,-0.8813,-0.2188,-0.303,16.0065,-13.7787,-100.5249
4.994743943,4.997041106,-0.8813,-0.2188,-0.303,16.0065,-13.7787,-100.5249
4.998751998,5.001244902,-0.8813,-0.6562,-0.0078,14.328,-14.7858,-113.5559
5.002205014,5.004560113,-1.0298,-0.6292,-0.0078,14.328,-14.7858,-113.5559
5.005499959,5.007830023,-1.0298,-0.6292,-0.0078,14.328,-14.7858,-113.5559
5.009822964,5.013356089,-1.0298,-0.6292,-0.0078,24.3683,-19.0735,-124.8169
5.015051961,5.017347932,-1.0298,-0.6292,-0.0078,24.3683,-19.0735,-124.8169
5.018528104,5.021799922,-1.0298,-0.6292,0.073,30.2124,-18.1122,-123.9319
5.023582101,5.025874018,-0.6492,-0.4009,0.073,30.2124,-18.1122,-123.9319
5.027783036,5.031514048,-0.6492,-0.4009,0.073,30.2124,-24.0021,-130.1727
5.032415032,5.034807086,-0.6492,-0.4009,0.073,24.5819,-24.0021,-130.1727
5.036416888,5.038719058,-0.6492,-0.4009,0.073,24.5819,-24.0021,-130.1727
5.040370106,5.042744994,-0.6536,-0.6165,-0.2922,21.1182,-27.0691,-132.1259
5.043280959,5.045657038,-0.6536,-0.6165,-0.2922,21.1182,-27.0691,-132.1259
5.046824097,5.049126029,-0.6536,-0.6165,-0.2922,21.1182,-27.0691,-132.1259
5.050151944,5.052805066,-0.6536,-0.6165,-0.2922,19.104,-27.1606,-129.5319
5.053769946,5.056547999,-0.6536,-0.6165,-0.2922,19.104,-27.1606,-129.5319
5.057814955,5.060119033,-0.6536,-0.6165,-0.2922,19.104,-27.1606,-129.5319
5.061281085,5.064663052,-0.9355,-0.585,-0.3601,18.5394,-24.7955,-123.7793
5.065575003,5.069367051,-0.9355,-0.585,-0.3601,18.5394,-24.7955,-123.7793
5.070609927,5.072902083,-0.9355,-0.585,-0.3601,18.5394,-24.7955,-123.7793
5.073888898,5.076290965,-0.9355,-0.585,-0.3601,12.6801,-24.5056,-113.2812
5.077159047,5.08052504,-0.9355,-0.585,-0.3601,12.6801,-24.5056,-113.2812
5.081674933,5.085225939,-0.9973,-0.8408,-0.135,12.6801,-24.5056,-97.6562
5.08636105,5.08932507,-0.9973,-0.8408,-0.135,12.1918,-23.056,-95.6573
5.090995907,5.093889117,-0.9973,-0.8408,-0.135,12.1918,-23.056,-95.6573
5.09507811,5.097811103,-0.9973,-0.8408,-0.135,9.4757,-21.4081,-75.5005
5.098842025,5.101185918,-0.9973,-0.8408,-0.0344,9.4757,-21.4081,-75.5005
5.102075934,5.104592919,-1.0708,-0.9324,-0.0344,9.4757,-21.4081,-75.5005
5.105730891,5.108024001,-1.0708,-0.9324,-0.0344,5.8136,-20.0348,-52.2461
5.108864903,5.111266017,-1.0708,-0.9324,-0.0344,5.8136,-20.0348,-52.2461
5.112187028,5.114478945,-1.0708,-0.9324,-0.0344,5.8136,-20.0348,-52.2461
5.115297913,5.117590069,-1.0708,-0.9324,-0.0344,5.8136,-12.2223,-27.1759
5.118461013,5.120924115,-1.0708,-0.9324,-0.0344,-0.0763,-15.0604,-27.1759
5.123987078,5.126284957,-0.8438,-1.0591,0.012,-0.0763,-15.0604,-27.1759
5.127390027,5.131612897,-0.8438,-1.0591,0.012,-4.5929,-6.5308,-1.5106
5.132752061,5.135047078,-0.8438,-1.0591,0.012,-4.5929,-6.5308,-1.5106
5.136041999,5.138332963,-0.8438,-1.0591,0.012,-4.5929,-6.5308,-1.5106
5.140142083,5.142654061,-0.8262,-1.1189,0.0889,-8.0566,4.1199,24.3835
5.143710971,5.147328019,-0.8262,-1.1189,0.0889,-8.0566,4.1199,24.3835
5.148451924,5.150917887,-0.8262,-1.1189,0.0889,-11.5356,17.2119,52.2461
5.153176903,5.155598044,-0.8262,-1.1189,0.0889,-11.5356,17.2119,52.2461
5.157301068,5.159897923,-0.8262,-1.1189,0.0889,-11.5356,17.2119,52.2461
5.161019921,5.163443923,-1.3159,-1.2622,0.1423,-14.9994,32.0892,85.022
5.164606929,5.167029023,-1.3159,-1.2622,0.1423,-14.9994,32.0892,85.022
5.168118119,5.17050302,-1.3159,-1.2622,0.1423,-14.9994,32.0892,85.022
5.171297908,5.173832059,-1.3159,-1.2622,0.1423,-17.2882,47.2412,123.8251
5.175283074,5.179415106,-1.3159,-1.2622,0.1423,-17.2882,47.2412,123.8251
5.180333018,5.184258103,-1.7178,-1.1614,0.0564,-18.0054,60.4401,164.9323
5.185406089,5.188303113,-1.7178,-1.1614,0.0564,-18.0054,60.4401,164.9323
5.189556956,5.192961096,-1.7178,-1.1614,0.0564,-18.0054,60.4401,164.9323
5.1940521,5.196951031,-1.7178,-1.1614,0.0564,-20.462,72.7539,207.428
5.197980046,5.200394988,-1.7178,-1.1614,0.0564,-20.462,72.7539,207.428
5.201481938,5.204480052,-2.3892,-0.5571,-0.0547,-20.462,72.7539,244.4305
5.205614924,5.208943963,-2.3892,-0.5571,-0.0547,-29.9225,77.9419,244.4305
5.21015203,5.212448954,-2.3892,-0.5571,-0.0547,-29.9225,77.9419,244.4305
5.21540296,5.21818006,-2.3892,-0.5571,-0.0547,-49.118,66.2994,272.8271
5.219167113,5.221557021,-2.3892,-0.5571,-0.6833,-49.118,66.2994,272.8271
5.222540974,5.224933982,-4.2803,0.6848,-0.6833,-49.118,66.2994,272.8271
5.226093888,5.228385091,-4.2803,0.6848,-0.6833,-69.0613,37.5519,278.1525
5.229425072,5.234495043,-4.2803,0.6848,-0.6833,-69.0613,37.5519,278.1525
5.235618949,5.237911105,-4.2803,0.6848,-0.6833,-65.155,-5.7983,246.2311
5.238757014,5.242080092,-4.2803,1.6848,-1.1711,-63.6902,-5.7983,246.2311
5.243223071,5.246075988,-3.3047,1.6873,-1.1711,-63.6902,-5.7983,246.2311
5.248336911,5.250775933,-3.3047,1.6873,-1.1711,-95.0775,-38.3301,255.3558
5.252535939,5.255423903,-3.3047,1.6873,-1.1711,-95.0775,-38.3301,255.3558
5.256408095,5.258912921,-3.3047,1.6873,-1.1711,-95.0775,-38.3301,196.7621
5.260137915,5.262435078,-1.4922,-2.4373,-1.948,-120.575,-37.9944,197.1741
5.264033913,5.267097115,-1.4377,-2.4373,-1.948,-120.575,-37.9944,197.1741
5.268192887,5.271185994,-1.4377,-2.4373,-1.948,-159.6527,-23.5748,109.8785
5.272024035,5.276724934,-1.4377,-2.4373,-1.948,-159.6527,-23.5748,109.8785
5.277253985,5.279713988,-1.4377,-2.4373,-1.948,-159.6527,-23.5748,109.8785
5.280697941,5.283084988,0.5869,-1.7959,-1.28,-164.9475,-19.6838,72.6624
5.284043908,5.286454081,0.5869,-1.7959,-1.28,-164.9475,-19.6838,72.6624
5.287475943,5.289883971,0.5869,-1.7959,-1.28,-164.9475,-19.6838,72.6624
5.290871978,5.293204903,0.5869,-1.7959,-1.28,-101.2421,16.4337,62.6373
5.294050097,5.296352029,0.5869,-1.7959,-1.28,-101.2421,16.4337,62.6373
5.297222018,5.299841046,0.5869,-1.7959,-1.28,-101.2421,16.4337,62.6373
5.30092299,5.30321896,-0.8542,-1.644,-0.4719,-58.2733,29.3884,-28.3051
5.304104924,5.307659983,-0.8542,-1.644,-0.4719,-57.2357,29.3884,-28.3051
5.308857083,5.311209082,-0.8542,-1.644,-0.4719,-57.2357,29.3884,-28.3051
5.314111113,5.316412091,-0.8542,-1.644,-0.4719,-2.2583,24.5514,-95.5505
5.317377925,5.319739937,-0.8542,-1.644,-0.4719,-2.2583,24.5514,-95.5505
5.321525931,5.323929906,-0.5728,-1.0654,-0.5417,-2.2583,24.5514,-95.5505
5.325014949,5.328102946,-0.5728,-1.0654,-0.5417,68.4204,26.7181,-108.551
5.330201029,5.332495093,-0.5728,-1.0654,-0.5417,68.4204,26.7181,-108.551
5.333661914,5.336164117,-0.5728,-1.0654,-0.5417,115.2954,36.8042,-110.321
5.337936043,5.34098494,-0.5728,-1.0654,-0.5417,115.6311,36.8042,-110.321
5.341811061,5.344322085,-0.9529,-0.2043,-0.4617,115.6311,36.8042,-110.321
5.345198989,5.348199963,-0.9529,-0.2043,-0.4617,129.776,38.6963,-115.6464
5.349085927,5.352202058,-0.9529,-0.2043,-0.4617,129.776,38.6963,-115.6464
5.354121089,5.357027888,-0.9529,-0.2043,-0.4617,129.776,38.6963,-119.5526
5.35869801,5.36105597,-0.9529,-0.2043,-0.4617,133.667,39.1388,-118.3624
5.362218976,5.365021109,-0.7888,-0.0132,-0.0591,133.667,39.1388,-118.3624
5.366253972,5.368929982,-0.7888,-0.0132,-0.0591,134.0027,35.3699,-115.097
5.372523904,5.374817967,-0.7888,-0.0132,-0.0591,134.0027,35.3699,-115.097
5.375759959,5.37915194,-0.7888,-0.0132,-0.0591,134.0027,27.5574,-109.8022
5.380289912,5.382579922,-0.7888,0.7913,0.1094,131.8054,28.7628,-109.8022
5.383762955,5.386062026,-0.5994,0.7913,0.1094,131.8054,28.7628,-109.8022
5.386901021,5.389195084,-0.5994,0.7913,0.1094,131.8054,28.7628,-109.8022
5.391126036,5.393418908,-0.5994,0.7913,0.1094,117.2333,22.0337,-100.8148
5.394214987,5.396506905,-0.5994,0.7913,0.1094,117.2333,22.0337,-100.8148
5.398794055,5.401095986,-0.5994,0.7913,0.1094,117.2333,14.2212,-88.7146
5.402699113,5.404992938,-0.0063,1.0225,0.2234,88.8062,15.3503,-88.7146
5.405923009,5.408317923,-0.0063,1.0225,0.2234,88.8062,15.3503,-88.7146
5.409438014,5.411734938,-0.0063,1.0225,0.2234,88.8062,15.3503,-73.0133
5.412902951,5.415283084,-0.0063,1.0225,0.2234,59.2651,11.1694,-73.0133
5.416499018,5.418788075,-0.0063,1.0225,0.2234,59.2651,11.1694,-73.0133
5.420508027,5.423859954,-0.0063,0.4993,0.2754,35.3699,9.0942,-57.5867
5.424393058,5.426754117,0.4675,0.4993,0.2754,35.3699,9.0942,-57.5867
5.428011059,5.43101108,0.4675,0.4993,0.2754,35.3699,9.0942,-57.5867
5.432884097,5.435181975,0.4675,0.4993,0.2754,21.5759,7.782,-46.6614
5.436912894,5.439206958,0.4675,0.4993,0.2754,21.5759,7.782,-46.6614
5.441594004,5.443893075,0.1746,0.4319,0.2793,21.5759,7.782,-46.6614
5.445639014,5.447940945,0.1746,0.4319,0.2793,12.619,6.485,-40.1611
5.449108958,5.453179955,0.1746,0.4319,0.2793,12.619,6.485,-40.1611
5.454398036,5.456828952,0.1746,0.4319,0.2793,1.8158,3.3875,-32.3334
5.459199071,5.461629986,0.1746,0.4319,0.2793,1.8158,3.3875,-32.3334
5.462767958,5.465567946,0.0032,0.5093,0.293,1.8158,3.3875,-32.3334
5.466736912,5.469730019,0.0032,0.5093,0.293,-13.9313,-2.3499,-26.5045
5.470701098,5.47299993,0.0032,0.5093,0.293,-13.9313,-2.3499,-26.5045
5.473962903,5.476538062,0.0032,0.5093,0.293,-13.9313,-2.3499,-26.5045
5.477074027,5.479529023,0.0032,0.5093,0.293,-28.3508,-8.728,-21.4386
5.481737971,5.485920071,0.0918,0.3411,0.2258,-28.3508,-8.728,-21.4386
5.486801028,5.490543961,0.0918,0.3411,0.2258,-30.7312,-14.0381,-17.9901
5.491649985,5.493945956,0.0918,0.3411,0.2258,-30.7312,-14.0381,-17.9901
5.494775891,5.497074008,0.0918,0.3411,0.2258,-30.7312,-14.0381,-17.9901
5.497943043,5.500290036,0.0918,0.3411,0.2258,-27.8931,-17.4713,-9.2163
5.501161933,5.503449082,0.2087,0.4519,0.261,-27.8931,-17.4713,-9.2163
5.504279971,5.508150935,0.2087,0.4519,0.261,-27.8931,-17.4713,-9.2163
5.509128928,5.512060046,0.2087,0.4519,0.261,-27.771,-20.6604,2.0447
5.513713956,5.51600492,0.2087,0.4519,0.261,-27.771,-20.6604,2.0447
5.517506957,5.519894004,0.2087,0.4519,0.261,-27.771,-20.6604,2.0447
5.521534085,5.523825049,0.3584,0.3828,0.3083,-29.6326,-24.1547,14.801
5.52481997,5.527639985,0.3584,0.3828,0.3083,-29.6326,-24.1547,14.801
5.529292941,5.531588912,0.3584,0.3828,0.3083,-29.6326,-24.1547,26.6113
5.533220887,5.53551495,0.3584,0.3828,0.3083,-32.7606,-27.0691,26.6113
5.536584973,5.538975119,0.3584,0.3828,0.3083,-32.7606,-27.0691,26.6113
5.540128112,5.54242599,0.3584,0.3828,0.3083,-32.7606,-27.0691,36.2244
5.543410897,5.545785069,0.3784,0.2827,0.2063,-34.79,-29.1443,36.2244
5.546656966,5.548955083,0.3784,0.2827,0.2063,-34.79,-29.1443,36.2244
5.549878001,5.552178025,0.3784,0.2827,0.2063,-34.79,-29.1443,36.2244
5.553063035,5.555364966,0.3784,0.2827,0.2063,-35.0037,-30.304,47.3175
5.556234955,5.558536887,0.3784,0.2827,0.2063,-35.0037,-30.304,47.3175
5.559368968,5.561931014,0.3784,0.2827,0.2063,-35.0037,-30.304,47.3175
5.562825083,5.565250992,0.0632,0.2781,0.1887,-38.4216,-33.8287,57.0221
5.566089034,5.56851089,0.0632,0.2781,0.1887,-38.4216,-33.8287,57.0221
5.569352984,5.571776032,0.0632,0.2781,0.1887,-38.4216,-33.8287,57.0221
5.572671055,5.576310038,0.0632,0.2781,0.1887,-42.3279,-36.5601,65.2161
5.578360915,5.582322001,0.0632,0.2781,0.1887,-41.5344,-36.5601,65.2161
5.584054112,5.589532971,0.0518,0.2336,0.1921,-44.7998,-36.911,72.0673
5.590453982,5.593088031,0.0518,0.2336,0.1921,-44.7998,-36.911,72.0673
5.593931079,5.59622395,0.0518,0.2336,0.1921,-44.7998,-36.911,72.0673
5.597106099,5.599413037,0.0518,0.2336,0.1921,-51.6815,-36.5448,75.3326
5.599949002,5.602261901,0.0518,0.2336,0.1921,-51.6815,-36.5448,75.3326
5.603144049,5.605438113,-0.0469,0.1228,0.0156,-51.6815,-36.5448,75.3326
5.606269955,5.608569979,-0.0469,0.1228,0.0156,-55.5878,-35.8276,78.4454
5.609393954,5.61168611,-0.0469,0.1228,0.0156,-57.5562,-35.8276,78.4454
5.612525105,5.614819884,-0.0469,0.1228,0.0156,-57.5562,-35.8276,78.4454
5.615616917,5.617912888,-0.0469,0.1228,0.0156,-57.5562,-35.8276,78.4454
5.61876595,5.621080041,-0.0469,0.1228,0.0156,-55.3589,-31.723,81.3751
5.621960997,5.624261975,-0.0503,0.1282,-0.0857,-55.3589,-31.723,81.3751
5.625146031,5.627441048,-0.0503,0.1282,-0.0857,-55.3589,-31.723,81.3751
5.628315091,5.630694985,-0.0503,0.1282,-0.0857,-36.1938,-25.6195,82.6569
5.631554007,5.633854031,-0.0503,0.1282,-0.0857,-36.1938,-25.6195,82.6569
5.634686112,5.636973977,-0.0503,0.1282,-0.0857,-36.1938,-25.6195,82.6569
5.637816071,5.640246987,-0.0503,0.1282,-0.0857,-36.1938,-25.6195,82.6569
5.641138911,5.643437981,-0.0503,0.0776,0.095,-39.5813,-26.001,74.8138
5.644282937,5.646570086,-0.5647,0.0776,0.095,-39.5813,-26.001,74.8138
5.647402882,5.649856925,-0.5647,0.0776,0.095,-39.5813,-26.001,74.8138
5.650742888,5.653040051,-0.5647,0.0776,0.095,-46.1121,-34.7595,59.1278
5.653916001,5.656216025,-0.5647,0.0776,0.095,-46.1121,-34.7595,59.1278
5.657003998,5.659427046,-0.5647,0.0776,0.095,-46.1121,-34.7595,59.1278
5.660219073,5.662511944,-0.5647,0.0776,0.095,-46.1121,-34.7595,56.4423
5.663401007,5.665701031,-0.6113,0.0586,-0.1079,-63.0951,-37.9181,56.4423
5.666492104,5.668798089,-0.6113,0.0586,-0.1079,-63.0951,-37.9181,56.4423
5.669782996,5.672071099,-0.6113,0.0586,-0.1079,-63.0951,-37.9181,56.4423
5.672922015,5.675300002,-0.6113,0.0586,-0.1079,-98.8464,-46.5088,42.984
5.67614305,5.678438067,-0.6113,0.0586,-0.1079,-98.8464,-46.5088,42.984
5.679460883,5.681753993,-0.6113,0.0586,-0.1079,-98.8464,-46.5088,42.984
5.682719111,5.685073018,-0.647,-6.5146,-3.6499,-63.1256,35.9955,-27.2217
5.68560493,5.688157916,-0.647,-6.5146,-3.6499,-63.1256,35.9955,-27.2217
5.689035058,5.69138205,-0.647,-6.5146,-3.6499,-63.1256,35.9955,-27.2217
5.692228913,5.694521069,-0.647,-6.5146,-3.6499,-63.1256,35.9955,-27.2217
5.695397973,5.697688937,-0.647,-6.5146,-3.6499,-19.6075,20.3247,-323.0896
5.698567033,5.700893998,-0.647,-6.5146,-3.6499,-19.6075,20.3247,-323.0896
5.701732039,5.704026103,-7.147,1.4275,-3.0767,-19.6075,20.3247,-323.0896
5.704904914,5.707200885,-7.1653,1.4275,-3.0767,-11.1847,-87.6007,-133.8654
5.70807302,5.710416913,-7.1653,1.4275,-3.0767,-11.1847,-87.6007,-133.8654
5.711197972,5.713492989,-7.1653,1.4275,-3.0767,-11.1847,-87.6007,-133.8654
5.714357972,5.716656089,-7.1653,1.4275,-3.0767,-11.1847,-87.6007,120.0409
5.717529893,5.719869971,-7.1653,1.4275,-3.0767,199.3713,71.3654,117.6453
5.720656991,5.722947955,-7.1653,1.4275,-3.0767,199.3713,71.3654,117.6453
5.723799109,5.72609508,-7.998,1.8586,1.9329,199.3713,71.3654,117.6453
5.726968884,5.729435086,-7.998,1.8586,1.9329,91.2628,-44.1132,-67.1692
5.730294108,5.732587933,-7.998,1.8586,1.9329,91.2628,-44.1132,-67.1692
5.733430981,5.735720992,-7.998,1.8586,1.9329,91.2628,-44.1132,-67.1692
5.736537099,5.738827109,-7.998,1.8586,1.9329,91.2628,-44.1132,-327.5299
5.739843964,5.742139935,-7.998,1.8586,1.9329,-17.8833,-43.6554,-327.5299
5.742983937,5.745278954,1.1406,-1.4819,-0.8047,-17.8833,-43.6554,-327.5299
5.746069073,5.748355984,1.1406,-1.4819,-0.8047,-17.8833,-43.6554,-327.5299
5.749227881,5.751639962,1.1406,-1.4819,-0.8047,-60.0281,-10.6354,-271.9574
5.752512097,5.754804969,1.1406,-1.4819,-0.8047,-60.0281,-10.6354,-271.9574
5.755654931,5.757948994,1.1406,-1.4819,-0.8047,-60.0281,-10.6354,-271.9574
5.758770108,5.76106894,1.1406,-1.4819,-0.8047,-1.4343,-0.5341,-166.0004
5.761947989,5.764242053,0.9531,-1.7249,0.2996,-1.0071,-0.5341,-166.0004
5.765019059,5.767315983,0.9705,-1.7249,0.2996,-1.0071,-0.5341,-166.0004
5.768140912,5.770491004,0.9705,-1.7249,0.2996,-1.0071,-0.5341,-166.0004
5.771386027,5.773800969,0.9705,-1.7249,0.2996,23.9563,7.309,-97.3663
5.774587035,5.776882052,0.9705,-1.7249,0.2996,23.9563,7.309,-97.3663
5.777705073,5.780130028,0.9705,-1.7249,0.2996,23.9563,7.309,-97.3663
5.781024098,5.783407092,0.9705,-1.7249,0.1746,15.5182,0.351,-52.1393
5.784285903,5.786574006,-1.083,-1.0129,0.1753,15.5182,0.351,-52.1393
5.787458062,5.78988111,-1.083,-1.0129,0.1753,15.5182,0.351,-52.1393
5.790727973,5.793058991,-1.083,-1.0129,0.1753,15.5182,0.351,-9.1705
5.793929934,5.796394944,-1.083,-1.0129,0.1753,23.7579,12.9089,-10.9558
5.797233939,5.79973495,-1.083,-1.0129,0.1753,23.7579,12.9089,-10.9558
5.800272107,5.802676081,-1.083,-1.0129,0.1753,23.7579,12.9089,-10.9558
5.803507924,5.805797934,-0.9758,-0.8103,-0.3218,10.1166,11.4746,1.3428
5.80667603,5.808967948,-0.9758,-0.8103,-0.3218,10.1166,11.4746,1.3428
5.80986607,5.812159896,-0.9758,-0.8103,-0.3218,10.1166,11.4746,1.3428
5.81300199,5.815296054,-0.9758,-0.8103,-0.3218,10.1166,19.2871,19.104
5.816300034,5.818590998,-0.9758,-0.8103,-0.3218,6.7902,16.9525,19.104
5.819465041,5.821756959,-0.9758,-0.8103,-0.3218,6.7902,16.9525,19.104
5.822593093,5.824889064,-1.1467,-0.6902,-0.2859,6.7902,16.9525,19.104
5.825710892,5.828004002,-1.1467,-0.6902,-0.2859,6.1035,19.6533,27.8778
5.828878998,5.831261992,-1.1467,-0.6902,-0.2859,6.1035,19.6533,27.8778
5.832191109,5.834489941,-1.1467,-0.6902,-0.2859,6.1035,19.6533,27.8778
5.835307955,5.837602019,-1.1467,-0.6902,-0.2859,-2.5177,19.2871,29.2206
5.838473916,5.840817094,-1.1467,-0.6902,-0.2859,-2.5177,19.2871,29.2206
5.841689944,5.844119906,-1.1467,-0.5652,-0.2649,-2.5177,19.2871,29.2206
5.845007062,5.847297072,-1.3472,-0.5706,-0.2649,-2.5177,19.2871,29.2206
5.848113894,5.850649953,-1.3472,-0.5706,-0.2649,-11.4441,13.6871,31.8604
5.851513028,5.853900075,-1.3472,-0.5706,-0.2649,-11.4441,13.6871,31.8604
5.854734063,5.857030034,-1.3472,-0.5706,-0.2649,-11.4441,13.6871,31.8604
5.857858061,5.860264897,-1.3472,-0.5706,-0.2649,-17.9138,12.2681,38.0859
5.861163974,5.863576054,-1.3472,-0.5706,-0.2649,-17.9138,12.2681,38.0859
5.864452958,5.866747021,-0.949,-0.6775,-0.26,-17.9138,12.2681,38.0859
5.867575049,5.870025038,-0.949,-0.6775,-0.26,-17.9138,8.3618,46.5088
5.870870948,5.873194098,-0.949,-0.6775,-0.26,-18.9362,10.3607,46.5088
5.87402904,5.8764261,-0.949,-0.6775,-0.26,-18.9362,10.3607,46.5088
5.877303958,5.879602074,-0.949,-0.6775,-0.26,-18.9362,10.3607,46.5088
5.880448937,5.885539889,-0.949,-0.6775,-0.26,-16.037,8.7738,59.3414
5.887047887,5.889423966,-0.8218,-0.6538,-0.2092,-16.037,8.7738,59.3414
5.889959931,5.892264008,-0.8218,-0.6538,-0.2092,-12.8174,8.0872,73.5474
5.893156886,5.895450949,-0.8218,-0.6538,-0.2092,-12.8174,8.0872,73.5474
5.896328091,5.898624062,-0.8218,-0.6538,-0.2092,-12.8174,8.0872,73.5474
5.899495959,5.901796937,-0.8218,-0.6538,-0.2092,-12.8174,8.0872,73.5474
5.9026829,5.904972911,-0.7637,-0.5916,-0.2341,-9.5825,6.2714,83.6334
5.905789017,5.908815026,-0.7637,-0.5916,-0.2341,-9.5825,6.2714,83.6334
5.909683108,5.912181019,-0.7637,-0.5916,-0.2341,-9.5825,6.2714,83.6334
5.914215922,5.917221904,-0.7637,-0.5916,-0.2341,-5.7373,6.1646,89.0656
5.918110013,5.92051208,-0.7637,-0.5916,-0.2341,-5.7373,6.1646,89.0656
5.921394944,5.924730897,-0.7637,-0.4368,-0.3054,-5.7373,6.7749,91.2018
5.925259947,5.927574038,-0.9089,-0.4368,-0.3054,-1.77,6.7749,91.2018
5.928407073,5.932491898,-0.9089,-0.4368,-0.3054,-1.77,6.7749,91.2018
5.933376908,5.937221884,-0.9089,-0.4368,-0.3054,0.3204,7.4005,90.8661
5.938345074,5.940919995,-0.9089,-0.4368,-0.3054,0.3204,7.4005,90.8661
5.942441106,5.944748044,-0.9089,-0.3235,-0.3213,0.3204,7.4005,90.8661
5.946190953,5.948484063,-1.0237,-0.3235,-0.3213,0.0458,6.0883,88.974
5.950802922,5.953097939,-1.0237,-0.3235,-0.3213,0.0458,6.0883,88.974
5.95405209,5.956761956,-1.0237,-0.3235,-0.3213,0.0458,6.0883,85.3882
5.958430886,5.960738063,-1.0237,-0.3235,-0.3213,-0.2899,4.3793,85.3882
5.962386012,5.965417027,-1.0237,-0.3103,-0.2644,-0.2899,4.3793,85.3882
5.9664191,5.96913898,-1.043,-0.3103,-0.2644,-2.6093,3.0365,81.0852
5.970333934,5.972757935,-1.043,-0.3103,-0.2644,-2.6093,3.0365,81.0852
5.973844886,5.976868987,-1.043,-0.3103,-0.2644,-2.6093,3.0365,81.0852
5.977940917,5.980968117,-1.043,-0.3103,-0.2644,-7.782,1.9531,76.2177
5.981861949,5.985396981,-1.043,-0.3103,-0.2019,-7.782,1.9531,76.2177
5.985920071,5.988437056,-1.0137,-0.1895,-0.2021,-7.782,1.9531,76.2177
5.989569068,5.993066907,-1.0137,-0.1895,-0.2021,-12.4207,-0.8087,70.0378
5.994896054,5.997201085,-1.0137,-0.1895,-0.2021,-12.4207,-0.8087,70.0378
5.998089909,6.000482917,-1.0137,-0.1895,-0.2021,-12.4207,-0.8087,62.7899
6.001323104,6.003622889,-1.0137,-0.1895,-0.2021,-15.7013,-3.006,62.7899
6.004499077,6.006795048,-0.9045,-0.1587,-0.2678,-15.7013,-3.006,62.7899
6.007662892,6.010103106,-0.9045,-0.1587,-0.2678,-15.7013,-3.006,62.7899
6.010933995,6.013232112,-0.9045,-0.1587,-0.2678,-17.0593,-5.7831,54.2297
6.014059901,6.016351103,-0.9045,-0.1587,-0.2678,-17.0593,-5.7831,54.2297
6.017229914,6.019549012,-0.9045,-0.1587,-0.2678,-17.0593,-5.7831,54.2297
6.020444989,6.02287209,-0.9045,-0.1587,-0.2678,-20.9656,-8.2855,46.814
6.023704886,6.026127934,-0.7773,-0.1553,-0.3804,-19.6228,-8.2855,46.814
6.026914,6.029349923,-0.7773,-0.1553,-0.3804,-19.6228,-8.2855,46.814
6.030228972,6.032524943,-0.7773,-0.1553,-0.3804,-19.6228,-8.2855,46.814
6.033392071,6.03568995,-0.7773,-0.1553,-0.3804,-20.8282,-8.6823,41.2903
6.036511063,6.038813948,-0.7773,-0.1553,-0.3804,-20.8282,-8.6823,41.2903
6.039728045,6.042153001,-0.7773,-0.1553,-0.3804,-20.8282,-8.6823,41.2903
6.043038964,6.045467972,-0.7773,-0.2168,-0.3979,-18.0817,-8.3618,36.8958
6.046260953,6.048684954,-0.7869,-0.2168,-0.3979,-18.0817,-8.3618,36.8958
6.049519896,6.05181992,-0.7869,-0.2168,-0.3979,-18.0817,-8.3618,36.8958
6.052698016,6.054998994,-0.7869,-0.2168,-0.3979,-18.0817,-8.3618,32.6691
6.055844903,6.058813929,-0.7869,-0.2168,-0.3979,-14.1754,-6.9733,32.6691
6.059709906,6.062015891,-0.7869,-0.2168,-0.3979,-14.1754,-6.9733,32.6691
6.062852025,6.065148949,-0.7869,-0.1995,-0.3496,-14.1754,-6.9733,32.6691
6.065996051,6.068292975,-0.873,-0.1995,-0.3496,-9.7198,-6.0883,29.48
6.069129109,6.071446061,-0.873,-0.1995,-0.3496,-9.7198,-6.0883,29.48
6.072285056,6.074577927,-0.873,-0.1995,-0.3496,-9.7198,-6.0883,29.48
6.075444102,6.07773292,-0.873,-0.1995,-0.3496,-4.6082,-4.4708,25.7568
6.078594088,6.081006884,-0.873,-0.1995,-0.3496,-4.6082,-4.4708,25.7568
6.081884026,6.084474921,-0.873,-0.1995,-0.2871,-4.6082,-4.4708,25.7568
6.08534801,6.089507937,-0.9241,-0.1562,-0.2913,-0.7019,-3.7689,22.2778
6.090035081,6.092449069,-0.9241,-0.1562,-0.2913,-0.9766,-3.7689,22.2778
6.093332886,6.095625996,-0.9241,-0.1562,-0.2913,-0.9766,-3.7689,22.2778
6.09645307,6.098746895,-0.9241,-0.1562,-0.2913,-0.9766,-3.7689,19.104
6.09961307,6.102851033,-0.9241,-0.1562,-0.2913,-0.9155,-3.5706,19.104
6.103978991,6.106273055,-0.9688,-0.176,-0.2637,-0.9155,-3.5706,19.104
6.107098937,6.109697938,-0.9688,-0.176,-0.2637,-0.9155,-3.5706,17.4255
6.110545039,6.113964915,-0.9688,-0.176,-0.2637,-2.2888,-1.9226,17.4255
6.115003943,6.117329955,-0.9688,-0.176,-0.2637,-2.2888,-1.9226,17.4255
6.11886394,6.121202111,-0.9688,-0.176,-0.2637,-4.4403,-0.4883,15.686
6.122233987,6.125757098,-0.9688,-0.176,-0.2637,-4.4403,-0.4883,15.686
6.127448916,6.129754901,-1.123,-0.2397,-0.1914,-4.4403,-0.4883,15.686
6.13155806,6.134487986,-1.123,-0.2397,-0.1914,-6.8207,0.4883,14.4501
