timestamp_before,timestamp_after,accel_x,accel_y,accel_z,gyro_x,gyro_y,gryo_z
0.006106099,0.008399924,-1.0571,-0.1216,-0.3147,-21.8048,-5.9662,-36.5143
0.008762082,0.011055907,-1.0571,-0.1216,-0.3147,75.3174,-6.0883,-36.5143
0.011415919,0.013762912,-1.0571,-0.1216,-0.3147,75.3174,-6.0883,-36.5143
0.014124116,0.016417941,-1.0571,-0.1216,-0.3147,75.3174,-6.0883,-36.5143
0.016775092,0.019073924,-1.0571,-0.1216,-0.3147,8.9111,-39.2456,-88.7604
0.019431075,0.024481019,-1.0571,-0.1216,-0.3147,10.498,-39.2456,-88.7604
0.024862012,0.027480086,-1.0527,-0.1179,-0.2993,10.498,-39.2456,-88.7604
0.027847012,0.030316075,-1.0527,-0.1179,-0.2993,10.3912,-40.1306,-88.9587
0.032047948,0.034574946,-1.0527,-0.1179,-0.2993,10.3912,-40.1306,-88.9587
0.035426101,0.037721118,-1.0527,-0.1179,-0.2993,10.3912,-40.1306,-88.9587
0.038083991,0.040384015,-1.0527,-0.1179,-0.2993,10.6354,-39.917,-88.8824
0.040743073,0.043049058,-1.0527,-0.1179,-0.2993,10.6354,-39.917,-88.8824
0.043410024,0.045705041,-1.0527,-0.1179,-0.2993,10.6354,-39.917,-88.8824
0.046064099,0.048368892,-1.0632,-0.1233,-0.3108,10.6354,-39.917,-88.8824
0.048728904,0.051020106,-1.0632,-0.1233,-0.3108,10.6812,-39.7491,-89.1876
0.051380118,0.053792914,-1.0632,-0.1233,-0.3108,10.6812,-39.7491,-89.1876
0.054154118,0.05644699,-1.0632,-0.1233,-0.3108,10.6812,-39.7491,-89.1876
0.056806048,0.059097966,-1.0632,-0.1233,-0.3108,10.6812,-39.7491,-89.1876
0.059458932,0.061757049,-1.0632,-0.1233,-0.3108,10.7574,-39.9628,-91.4612
0.062118014,0.064553937,-1.0632,-0.1233,-0.3108,10.7574,-39.9628,-91.4612
0.064914903,0.067211112,-1.0547,-0.1223,-0.3154,10.7574,-39.9628,-91.4612
0.067569932,0.069867095,-1.0547,-0.1223,-0.3154,10.7574,-39.9628,-91.4612
0.070224961,0.07258006,-1.0547,-0.1223,-0.3154,10.7574,-39.7034,-89.9658
0.072937926,0.075319966,-1.0547,-0.1223,-0.3154,10.7574,-39.7034,-89.9658
0.075679978,0.077970942,-1.0547,-0.1223,-0.3154,10.7574,-39.7034,-89.9658
0.078330954,0.080623111,-1.0547,-0.1223,-0.3154,10.7574,-39.7034,-89.9658
0.080981931,0.083614072,-1.0547,-0.1223,-0.3154,10.5133,-39.2761,-87.2955
0.083975991,0.086277923,-1.0547,-0.1223,-0.3154,10.5133,-39.2761,-87.2955
0.086636027,0.088938912,-1.0601,-0.1208,-0.3193,10.5133,-39.2761,-87.2955
0.089300116,0.091604909,-1.0601,-0.1208,-0.3193,10.5133,-39.2761,-87.2955
0.091964921,0.09462305,-1.0601,-0.1208,-0.3193,10.2539,-38.9709,-86.731
0.09499093,0.097408017,-1.0601,-0.1208,-0.3193,10.2539,-38.9709,-86.731
0.097773036,0.100182017,-1.0601,-0.1208,-0.3193,10.2539,-38.9709,-86.731
0.100548943,0.102963885,-1.0601,-0.1208,-0.3193,10.2539,-38.9709,-86.731
0.103330096,0.10592409,-1.0601,-0.1208,-0.3193,10.1471,-38.7878,-85.9222
0.106291016,0.108699044,-1.062,-0.1245,-0.324,10.1471,-38.7878,-85.9222
0.109066924,0.111473998,-1.062,-0.1245,-0.324,10.1471,-38.7878,-85.9222
0.111839971,0.114279946,-1.062,-0.1245,-0.324,10.1471,-38.7878,-85.9222
0.114648065,0.117078027,-1.062,-0.1245,-0.324,9.7504,-38.0707,-84.7168
0.117443046,0.119866094,-1.062,-0.1245,-0.324,9.7504,-38.0707,-84.7168
0.120378932,0.122817954,-1.062,-0.1245,-0.324,9.7504,-38.0707,-84.7168
0.123182973,0.125605067,-1.062,-0.1245,-0.324,9.7504,-38.0707,-83.1909
0.125968894,0.128392896,-1.0552,-0.1189,-0.3179,9.1553,-37.262,-83.1909
0.128759107,0.131175956,-1.0552,-0.1189,-0.3179,9.1553,-37.262,-83.1909
0.131540021,0.133908948,-1.0552,-0.1189,-0.3179,9.1553,-37.262,-83.1909
0.134266099,0.136572083,-1.0552,-0.1189,-0.3179,9.1553,-37.262,-81.131
0.13692995,0.139228066,-1.0552,-0.1189,-0.3179,8.7128,-36.5906,-81.131
0.139584025,0.141885003,-1.0552,-0.1189,-0.3179,8.7128,-36.5906,-81.131
0.142245015,0.144544085,-1.0552,-0.1189,-0.3179,8.7128,-36.5906,-81.131
0.144905051,0.147199115,-1.1177,-0.1145,-0.3191,8.7128,-36.5906,-81.131
0.147556027,0.149984082,-1.0688,-0.1145,-0.3191,7.6599,-35.3088,-78.3234
0.150340995,0.152656993,-1.0688,-0.1145,-0.3191,7.6599,-35.3088,-78.3234
0.153021058,0.155442914,-1.0688,-0.1145,-0.3191,7.6599,-35.3088,-78.3234
0.155807933,0.15822502,-1.0688,-0.1145,-0.3191,7.6599,-35.3088,-73.9441
0.158590993,0.161014995,-1.0688,-0.1145,-0.3191,6.6681,-33.9966,-73.9441
0.161378106,0.163805922,-1.0688,-0.1145,-0.3191,6.6681,-33.9966,-73.9441
0.164169988,0.166593036,-1.0688,-0.1145,-0.313,6.6681,-33.9966,-73.9441
0.166959008,0.16937395,-1.0579,-0.124,-0.313,6.6681,-33.9966,-68.3899
0.169736108,0.172162017,-1.0579,-0.124,-0.313,4.6692,-32.0892,-68.3899
0.172534903,0.174958905,-1.0579,-0.124,-0.313,4.6692,-32.0892,-68.3899
0.17532297,0.177745065,-1.0579,-0.124,-0.313,4.6692,-32.0892,-68.3899
0.178111037,0.180534085,-1.0579,-0.124,-0.313,4.6692,-28.183,-60.73
0.180897912,0.183323106,-1.0579,-0.124,-0.313,2.2125,-28.7323,-60.73
0.183680972,0.185980042,-1.0579,-0.124,-0.313,2.2125,-28.7323,-60.73
0.186336955,0.188632926,-1.0532,-0.1289,-0.3162,2.2125,-28.7323,-60.73
0.188988885,0.191287955,-1.0532,-0.1289,-0.3162,2.2125,-24.826,-48.9197
0.191643914,0.194061955,-1.0532,-0.1289,-0.3162,-0.4883,-23.6053,-48.9197
0.194419106,0.196716985,-1.0532,-0.1289,-0.3162,-0.4883,-23.6053,-48.9197
0.197071036,0.19937106,-1.0532,-0.1289,-0.3162,-0.4883,-23.6053,-48.9197
0.199726066,0.202023944,-1.0532,-0.1289,-0.3162,-0.4883,-23.6053,-34.6222
0.202381095,0.204893073,-1.0532,-0.1289,-0.3162,-2.0752,-17.7612,-34.6222
0.205258092,0.207684955,-1.0652,-0.1169,-0.3164,-2.0752,-17.7612,-34.6222
0.208048066,0.210467061,-1.0652,-0.1169,-0.3164,-2.0752,-17.7612,-34.6222
0.210830888,0.213257989,-1.0652,-0.1169,-0.3164,-2.0752,-9.6436,-18.4326
0.213619908,0.21604391,-1.0652,-0.1169,-0.3164,-1.6785,-9.6436,-18.4326
0.216407975,0.218830069,-1.0652,-0.1169,-0.3164,-1.6785,-9.6436,-18.4326
0.219191989,0.221615037,-1.0652,-0.1169,-0.3164,-1.6785,-9.6436,-18.4326
0.221976956,0.224316081,-1.0652,-0.1169,-0.3164,2.2278,-3.1586,-8.0109
0.224666079,0.226963958,-1.0652,-0.1794,-0.3147,0.4272,-3.1586,-8.0109
0.227313956,0.229614934,-1.0667,-0.1309,-0.3147,0.4272,-3.1586,-8.0109
0.229963979,0.232260903,-1.0667,-0.1309,-0.3147,0.4272,-3.1586,-8.0109
0.232617101,0.235044917,-1.0667,-0.1309,-0.3147,0.4272,-3.1586,-8.1329
0.235402068,0.237825116,-1.0667,-0.1309,-0.3147,0.1068,-2.7771,-8.1329
0.238296946,0.240718087,-1.0667,-0.1309,-0.3147,0.1068,-2.7771,-8.1329
0.241124114,0.2436349,-1.0667,-0.1309,-0.3147,0.1068,-2.7771,-8.1329
0.243987998,0.246292075,-1.0667,-0.1309,-0.3147,-0.1984,-2.594,-7.8735
0.246640881,0.249038896,-1.053,-0.1423,-0.3096,-0.1984,-2.594,-7.8735
0.249386987,0.251688918,-1.053,-0.1423,-0.3096,-0.1984,-2.594,-7.8735
0.252407988,0.254836043,-1.053,-0.1423,-0.3096,-0.1984,-2.594,-7.8735
0.25519391,0.257617911,-1.053,-0.1423,-0.3096,-0.1678,-2.655,-7.5378
0.257972917,0.260400018,-1.053,-0.1423,-0.3096,-0.1678,-2.655,-7.5378
0.260754069,0.263184031,-1.053,-0.1423,-0.3096,-0.1678,-2.655,-7.5378
0.263539037,0.265969953,-1.053,-0.1423,-0.3096,-0.1678,-2.655,-7.5378
0.266324004,0.268743953,-1.0576,-0.1382,-0.314,0.5798,-2.3804,-7.2479
0.269101104,0.271523913,-1.0576,-0.1382,-0.314,0.5798,-2.3804,-7.2479
0.271880111,0.274354896,-1.0576,-0.1382,-0.314,0.5798,-2.3804,-7.2479
0.274709901,0.277130088,-1.0576,-0.1382,-0.314,0.5798,-2.3804,-7.2479
0.277485093,0.279909095,-1.0576,-0.1382,-0.314,0.6866,-2.2125,-6.958
0.280265054,0.282746991,-1.0576,-0.1382,-0.314,0.6866,-2.2125,-6.958
0.28309699,0.285393914,-1.0576,-0.1382,-0.314,0.6866,-2.2125,-6.958
0.285743913,0.28804489,-1.061,-0.1343,-0.3081,0.6866,-2.2125,-6.958
0.288392028,0.290689906,-1.061,-0.1343,-0.3081,0.351,-2.3041,-6.6071
0.291037997,0.293451032,-1.061,-0.1343,-0.3081,0.351,-2.3041,-6.6071
0.293798884,0.296102008,-1.061,-0.1343,-0.3081,0.351,-2.3041,-6.6071
0.296451053,0.298747024,-1.061,-0.1343,-0.3081,0.351,-2.3041,-6.6071
0.299097022,0.301397046,-1.061,-0.1343,-0.3081,0.1984,-2.2278,-6.8665
0.301747044,0.304273089,-1.061,-0.1343,-0.3081,0.1984,-2.2278,-6.8665
0.304629048,0.30705305,-1.061,-0.1343,-0.3098,0.1984,-2.2278,-6.8665
0.307408055,0.309831103,-1.0642,-0.1333,-0.3098,0.1984,-2.2278,-6.8665
0.310187062,0.312621077,-1.0642,-0.1333,-0.3098,0.2594,-1.8768,-6.5613
0.312976083,0.315402945,-1.0642,-0.1333,-0.3098,0.2594,-1.8768,-6.5613
0.315757951,0.318185052,-1.0642,-0.1333,-0.3098,0.2594,-1.8768,-6.5613
0.318541011,0.320960959,-1.0642,-0.1333,-0.3098,0.2594,-1.8768,-6.5613
0.321319064,0.323747119,-1.0642,-0.1333,-0.3098,-0.1068,-1.8005,-6.6376
0.324104031,0.326529941,-1.0642,-0.1333,-0.3098,-0.1068,-1.8005,-6.6376
0.326884946,0.329304894,-1.063,-0.1411,-0.3044,-0.1068,-1.8005,-6.6376
0.329662045,0.332088908,-1.063,-0.1411,-0.3044,-0.1068,-1.8005,-6.6376
0.332447013,0.334878882,-1.063,-0.1411,-0.3044,0.1221,-1.4038,-6.3629
0.33523508,0.337651929,-1.063,-0.1411,-0.3044,0.1221,-1.4038,-6.3629
0.338007888,0.340431889,-1.063,-0.1411,-0.3044,0.1221,-1.4038,-6.3629
0.340788087,0.343194922,-1.063,-0.1411,-0.3044,0.1221,-1.4038,-6.3629
0.343543967,0.345838984,-1.063,-0.1411,-0.3044,0.3815,-1.1292,-6.3171
0.346187076,0.348492106,-1.0581,-0.1335,-0.3152,0.3815,-1.1292,-6.3171
0.348839959,0.351139029,-1.0581,-0.1335,-0.3152,0.3815,-1.1292,-6.3171
0.351488074,0.353795012,-1.0581,-0.1335,-0.3152,0.3815,-1.1292,-6.3171
0.354144057,0.356435021,-1.0581,-0.1335,-0.3152,0.3815,-0.9918,-5.7831
0.356893023,0.359315118,-1.0581,-0.1335,-0.3152,0.3815,-0.9918,-5.7831
0.35966607,0.361972054,-1.0581,-0.1335,-0.3152,0.3815,-0.9918,-5.7831
0.36232396,0.365169009,-1.0581,-0.1335,-0.3152,0.3815,-0.9918,-5.7831
0.365528068,0.367952069,-1.062,-0.1313,-0.3076,0.412,-1.1597,-5.9052
0.368308028,0.370732984,-1.062,-0.1313,-0.3076,0.412,-1.1597,-5.9052
0.371089896,0.373557052,-1.062,-0.1313,-0.3076,0.412,-1.1597,-5.9052
0.373912057,0.376337966,-1.062,-0.1313,-0.3076,0.412,-1.1597,-5.9052
0.376693925,0.379120072,-1.062,-0.1313,-0.3076,0.412,-1.0681,-5.9052
0.379476985,0.38189598,-1.062,-0.1313,-0.3076,0.412,-1.0681,-5.9052
0.382250031,0.384679994,-1.062,-0.1313,-0.3076,0.412,-1.0681,-5.9052
0.385035952,0.387454947,-1.062,-0.1316,-0.302,0.412,-1.0681,-5.9204
0.387809953,0.390237054,-1.0649,-0.1316,-0.302,0,-0.6714,-5.9204
0.39059492,0.393013915,-1.0649,-0.1316,-0.302,0,-0.6714,-5.9204
0.393362006,0.395657977,-1.0649,-0.1316,-0.302,0,-0.6714,-5.9204
0.396007975,0.398309907,-1.0649,-0.1316,-0.302,0,-0.6714,-6.0272
0.398658952,0.400958022,-1.0649,-0.1316,-0.302,-0.3967,-1.236,-6.0272
0.401306113,0.403608998,-1.0649,-0.1316,-0.302,-0.3967,-1.236,-6.0272
0.403957089,0.406263074,-1.0649,-0.1316,-0.302,-0.3967,-1.236,-6.0272
0.406612119,0.408906897,-1.0618,-0.1306,-0.3181,-0.3967,-1.236,-6.3934
0.409255942,0.411560973,-1.0618,-0.1306,-0.3181,-0.3357,-1.3123,-6.3934
0.411909064,0.414384087,-1.0618,-0.1306,-0.3181,-0.3357,-1.3123,-6.3934
0.414730987,0.417031964,-1.0618,-0.1306,-0.3181,-0.3357,-1.3123,-6.3934
0.41737791,0.419683894,-1.0618,-0.1306,-0.3181,-0.3357,-1.3123,-6.3934
0.420031032,0.42232891,-1.0618,-0.1306,-0.3181,-0.0153,-1.3733,-6.424
0.422683915,0.425106009,-1.0618,-0.1306,-0.3181,-0.0153,-1.3733,-6.424
0.425465068,0.427892884,-1.0618,-0.1384,-0.3157,-0.0153,-1.3733,-6.424
0.428247889,0.430674991,-1.0593,-0.1384,-0.3157,-0.0153,-1.3733,-6.424
0.431033095,0.433462104,-1.0593,-0.1384,-0.3157,0.0763,-1.2054,-6.3477
0.43381997,0.436239919,-1.0593,-0.1384,-0.3157,0.0763,-1.2054,-6.3477
0.436598977,0.439022979,-1.0593,-0.1384,-0.3157,0.0763,-1.2054,-6.3477
0.439378938,0.441801986,-1.0593,-0.1384,-0.3157,0.0763,-1.2054,-6.3934
0.442157945,0.444492062,-1.0593,-0.1384,-0.3157,0.0763,-1.4496,-6.3934
0.444842061,0.447138032,-1.0593,-0.1384,-0.3157,0.0763,-1.4496,-6.3934
0.447488984,0.449790915,-1.0576,-0.1306,-0.3157,0.0763,-1.4496,-6.3934
0.450142106,0.452439984,-1.0576,-0.1306,-0.3157,0.0763,-1.4496,-6.3934
0.452851972,0.455278119,-1.0576,-0.1306,-0.3157,-0.4272,-1.4191,-6.7139
0.455631932,0.458056888,-1.0576,-0.1306,-0.3157,-0.4272,-1.4191,-6.7139
0.458411893,0.46083208,-1.0576,-0.1306,-0.3157,-0.4272,-1.4191,-6.7139
0.461188992,0.463627061,-1.0576,-0.1306,-0.3157,-0.4272,-1.4191,-6.5613
0.463982066,0.466406068,-1.0576,-0.1306,-0.3157,-0.5188,-1.709,-6.5613
0.466761073,0.469181975,-1.0605,-0.1375,-0.3115,-0.5188,-1.709,-6.5613
0.469536981,0.47196289,-1.0605,-0.1375,-0.3115,-0.5188,-1.709,-6.5613
0.472423991,0.47485896,-1.0605,-0.1375,-0.3115,-0.5188,-1.5717,-6.5613
0.475213965,0.477644881,-1.0605,-0.1375,-0.3115,-0.7782,-1.5717,-6.5613
0.477998933,0.48052307,-1.0605,-0.1375,-0.3115,-0.7782,-1.5717,-6.5613
0.480879983,0.483715972,-1.0605,-0.1375,-0.3115,-0.7782,-1.5717,-6.5613
0.484066924,0.486370047,-1.0605,-0.1375,-0.3115,-0.7477,-1.7395,-6.1493
0.486719092,0.489021024,-1.0605,-0.1411,-0.3101,-0.7477,-1.7395,-6.1493
0.489369115,0.491673907,-1.0605,-0.1411,-0.3101,-0.7477,-1.7395,-6.1493
0.492023906,0.494423112,-1.0605,-0.1411,-0.3101,-0.7477,-1.7395,-6.1493
0.494778117,0.497189006,-1.0605,-0.1411,-0.3101,-0.4578,-1.4038,-6.6071
0.497544011,0.499962052,-1.0605,-0.1411,-0.3101,-0.4578,-1.4038,-6.6071
0.500318011,0.502735099,-1.0605,-0.1411,-0.3101,-0.4578,-1.4038,-6.6071
0.503088912,0.505500993,-1.0605,-0.1411,-0.3101,-0.4578,-1.4038,-6.6071
0.505856952,0.508271893,-1.0613,-0.1406,-0.3193,-0.412,-1.2207,-6.3629
0.508626899,0.511036118,-1.0613,-0.1406,-0.3193,-0.412,-1.2207,-6.3629
0.511390885,0.513756951,-1.0613,-0.1406,-0.3193,-0.412,-1.2207,-6.3629
0.514105996,0.516401013,-1.0613,-0.1406,-0.3193,-0.412,-1.2207,-6.3629
0.516749104,0.519047936,-1.0613,-0.1406,-0.3193,-0.1526,-1.3123,-6.1951
0.519396027,0.521700105,-1.0613,-0.1406,-0.3193,-0.1526,-1.3123,-6.1951
0.522047004,0.524435004,-1.0613,-0.1406,-0.3193,-0.1526,-1.3123,-6.1951
0.524785003,0.527082881,-1.0613,-0.1406,-0.2568,-0.1526,-1.3123,-6.1951
0.527430972,0.529734095,-1.0601,-0.1343,-0.3101,0.3662,-0.9918,-5.9052
0.530081948,0.532377919,-1.0601,-0.1343,-0.3101,0.3662,-0.9918,-5.9052
0.532726964,0.535033902,-1.0601,-0.1343,-0.3101,0.3662,-0.9918,-5.9052
0.535382947,0.537677964,-1.0601,-0.1343,-0.3101,0.3662,-0.9918,-5.9052
0.538027009,0.540321072,-1.0601,-0.1343,-0.3101,0.3662,-1.1749,-5.8899
0.540668925,0.543112,-1.0601,-0.1343,-0.3101,0.6714,-1.1749,-5.8899
0.543468913,0.545890054,-1.0601,-0.1343,-0.3101,0.6714,-1.1749,-5.8899
0.546245059,0.548669061,-1.0583,-0.1348,-0.3083,0.6714,-1.1749,-5.8899
0.549023112,0.551449021,-1.0583,-0.1348,-0.3083,0.6714,-1.5411,-5.9357
0.551803073,0.554234942,-1.0583,-0.1348,-0.3083,0.1526,-1.5411,-5.9357
0.554590901,0.557012042,-1.0583,-0.1348,-0.3083,0.1526,-1.5411,-5.9357
0.557366094,0.559783896,-1.0583,-0.1348,-0.3083,0.1526,-1.5411,-5.9357
0.560141047,0.562565049,-1.0583,-0.1348,-0.3083,-0.1831,-1.7853,-6.3629
0.562921008,0.565348109,-1.0583,-0.1348,-0.3083,-0.1831,-1.7853,-6.3629
0.565701922,0.568119964,-1.0583,-0.1284,-0.3132,-0.1831,-1.7853,-6.3629
0.568472108,0.57089301,-1.0623,-0.1284,-0.3132,-0.1831,-1.7853,-6.3629
0.571249923,0.573620995,-1.0623,-0.1284,-0.3132,0.1831,-1.6937,-6.7902
0.573969087,0.576265057,-1.0623,-0.1284,-0.3132,0.1831,-1.6937,-6.7902
0.576611003,0.578913888,-1.0623,-0.1284,-0.3132,0.1831,-1.6937,-6.7902
0.579261979,0.581558904,-1.0623,-0.1284,-0.3132,0.1831,-1.6937,-6.7902
0.581906041,0.584353885,-1.0623,-0.1284,-0.3132,-0.1068,-1.8005,-7.2632
0.584711989,0.587123116,-1.0623,-0.1284,-0.3132,-0.1068,-1.8005,-7.2632
0.587477883,0.589888057,-1.0679,-0.1304,-0.3203,-0.1068,-1.8005,-7.2632
0.590352973,0.592873057,-1.0679,-0.1304,-0.3203,-0.1068,-1.8005,-7.2632
0.593229016,0.595618924,-1.0679,-0.1304,-0.3203,-0.1831,-2.1515,-7.4921
0.595974883,0.598385056,-1.0679,-0.1304,-0.3203,-0.1831,-2.1515,-7.4921
0.598724088,0.601226052,-1.0679,-0.1304,-0.3203,-0.1831,-2.1515,-7.4921
0.601581057,0.604412993,-1.0679,-0.1304,-0.3203,-0.1831,-2.1515,-7.4921
0.604773005,0.607202968,-1.0679,-0.1304,-0.3203,0.0458,-1.8921,-7.5684
0.607558927,0.609981975,-1.0627,-0.1306,-0.3147,0.0458,-1.8921,-7.5684
0.610338887,0.612770995,-1.0627,-0.1306,-0.3147,0.0458,-1.8921,-7.5684
0.613127908,0.615556916,-1.0627,-0.1306,-0.3147,0.0458,-1.8921,-7.5684
0.615915975,0.618335923,-1.0627,-0.1306,-0.3147,0.1221,-2.1057,-7.5226
0.618691882,0.62111493,-1.0627,-0.1306,-0.3147,0.1221,-2.1057,-7.5226
0.621472081,0.623942098,-1.0627,-0.1306,-0.3147,0.1221,-2.1057,-7.5226
0.624300918,0.626718005,-1.0627,-0.1306,-0.3147,0.1221,-2.1057,-11.4288
0.627078971,0.629507026,-1.0576,-0.1365,-0.3101,-0.2441,-2.3956,-7.9956
0.629863938,0.632944068,-1.0576,-0.1365,-0.3101,-0.2441,-2.3956,-7.9956
0.633296927,0.635591945,-1.0576,-0.1365,-0.3101,-0.2441,-2.3956,-7.9956
0.635940989,0.638232907,-1.0576,-0.1365,-0.3101,-0.2441,-2.3956,-8.0414
0.638582906,0.640876016,-1.0576,-0.1365,-0.3101,-0.4272,-2.6398,-8.0414
0.641226014,0.643545112,-1.0576,-0.1365,-0.3101,-0.4272,-2.6398,-8.0414
0.64389511,0.646187028,-1.0576,-0.1365,-0.3101,-0.4272,-2.6398,-8.0414
0.646538934,0.648823937,-1.0608,-0.1453,-0.3035,-0.4272,-2.6398,-7.9346
0.649172028,0.651461085,-1.0608,-0.1453,-0.3035,-0.3662,-2.6703,-7.9346
0.651807984,0.654256066,-1.0608,-0.1453,-0.3035,-0.3662,-2.6703,-7.9346
0.654605111,0.65689989,-1.0608,-0.1453,-0.3035,-0.3662,-2.6703,-7.9346
0.657247981,0.659542045,-1.0608,-0.1453,-0.3035,-0.3662,-2.6703,-7.9346
0.659889897,0.662189921,-1.0608,-0.1453,-0.3035,-0.0916,-2.7008,-7.9956
0.66266509,0.665081939,-1.0608,-0.1453,-0.3035,-0.0916,-2.7008,-7.9956
0.665440043,0.667859992,-1.0608,-0.1453,-0.314,-0.0916,-2.7008,-7.9956
0.668218097,0.670633992,-1.0642,-0.146,-0.314,-0.0916,-2.7008,-7.5836
0.670990905,0.673422059,-1.0642,-0.146,-0.314,-0.1221,-2.594,-7.5836
0.673779925,0.676193913,-1.0642,-0.146,-0.314,-0.1221,-2.594,-7.5836
0.676550111,0.67896696,-1.0642,-0.146,-0.314,-0.1221,-2.594,-7.5836
0.679324111,0.681745967,-1.0642,-0.146,-0.314,-0.1221,-2.594,-7.4615
0.682104072,0.684466084,-1.0642,-0.146,-0.314,-0.1221,-2.5787,-7.4615
0.684816083,0.687108954,-1.0642,-0.146,-0.314,-0.1221,-2.5787,-7.4615
0.687459906,0.689759931,-1.0583,-0.1494,-0.2981,-0.1221,-2.5787,-7.4615
0.690108022,0.692404946,-1.0583,-0.1494,-0.2981,-0.1221,-2.5787,-7.309
0.692753037,0.695058068,-1.0583,-0.1494,-0.2981,0.1984,-1.9684,-7.309
0.695407113,0.697704991,-1.0583,-0.1494,-0.2981,0.1984,-1.9684,-7.309
0.69805499,0.700345,-1.0583,-0.1494,-0.2981,0.1984,-1.9684,-7.309
0.700690946,0.703078946,-1.0583,-0.1494,-0.2981,0.1984,-1.9684,-7.309
0.703428945,0.705728015,-1.0583,-0.1494,-0.2981,0.1831,-2.1362,-7.0648
0.706076106,0.708369931,-1.0593,-0.1484,-0.3064,0.1831,-2.1362,-7.0648
0.708840093,0.711140117,-1.0593,-0.1484,-0.3064,0.1831,-2.1362,-7.0648
0.711488923,0.713923892,-1.0593,-0.1484,-0.3064,0.1831,-2.1362,-7.0648
0.714277944,0.716664037,-1.0593,-0.1484,-0.3064,0.2441,-1.8158,-6.3171
0.717016896,0.719733914,-1.0593,-0.1484,-0.3064,0.2441,-1.8158,-6.3171
0.72008892,0.722949943,-1.0593,-0.1484,-0.3064,0.2441,-1.8158,-6.3171
0.723300895,0.725599965,-1.0593,-0.1484,-0.3064,0.2441,-1.709,-6.4697
0.72594901,0.728246888,-1.0593,-0.1516,-0.3044,0.473,-1.709,-6.4697
0.728594979,0.730893096,-1.0574,-0.1516,-0.3044,0.473,-1.709,-6.4697
0.731240949,0.733608922,-1.0574,-0.1516,-0.3044,0.473,-1.709,-6.4697
0.733964881,0.736386022,-1.0574,-0.1516,-0.3044,0.473,-1.709,-6.1798
0.736741027,0.739160975,-1.0574,-0.1516,-0.3044,0.4425,-1.5411,-6.1798
0.739517888,0.741935929,-1.0574,-0.1516,-0.3044,0.4425,-1.5411,-6.1798
0.742290934,0.744754037,-1.0574,-0.1516,-0.3044,0.4425,-1.5411,-6.1798
0.745108088,0.747530898,-1.0574,-0.1516,-0.3044,0.4425,-1.6327,-6.1951
0.747887095,0.750304898,-1.0596,-0.1401,-0.3018,0.8698,-1.6327,-6.1951
0.750661096,0.753090104,-1.0596,-0.1401,-0.3018,0.8698,-1.6327,-6.1951
0.75343891,0.755736073,-1.0596,-0.1401,-0.3018,0.8698,-1.6327,-6.1951
0.756082972,0.758384904,-1.0596,-0.1401,-0.3018,0.8698,-1.5259,-6.1798
0.758732041,0.761031112,-1.0596,-0.1401,-0.3018,1.2817,-1.5259,-6.1798
0.761378011,0.76372095,-1.0596,-0.1401,-0.3018,1.2817,-1.5259,-6.1798
0.764069041,0.766366919,-1.0596,-0.1401,-0.3018,1.2817,-1.5259,-6.1798
0.766716918,0.769016942,-1.0596,-0.1436,-0.3101,1.2817,-1.5259,-6.3324
0.769365987,0.771664103,-1.0596,-0.1436,-0.3101,0.9003,-1.4648,-6.3324
0.772011002,0.774433097,-1.0596,-0.1436,-0.3101,0.9003,-1.4648,-6.3324
0.77478095,0.77707692,-1.0596,-0.1436,-0.3101,0.9003,-1.4648,-6.3324
0.777424058,0.779720982,-1.0596,-0.1436,-0.3101,0.9003,-1.4648,-6.1493
0.780069074,0.782365045,-1.0596,-0.1436,-0.3101,0.9003,-1.5869,-6.1493
0.78271695,0.785139998,-1.0596,-0.1436,-0.3101,0.9003,-1.5869,-6.1493
0.785496911,0.787917098,-1.0596,-0.1436,-0.3096,0.9003,-1.5869,-6.1493
0.788273057,0.790694913,-1.0596,-0.1443,-0.3096,0.9003,-1.5869,-6.3934
0.79105111,0.793472966,-1.0596,-0.1443,-0.3096,0.3815,-1.6937,-6.3934
0.793827971,0.796251019,-1.0596,-0.1443,-0.3096,0.3815,-1.6937,-6.3934
0.796607932,0.79902502,-1.0596,-0.1443,-0.3096,0.3815,-1.6937,-6.3934
0.799380979,0.801802119,-1.0596,-0.1443,-0.3096,0.3815,-1.6937,-6.1188
0.802156886,0.804587087,-1.0596,-0.1443,-0.3096,0.6561,-1.6327,-6.1188
0.804942092,0.807362994,-1.0596,-0.1443,-0.3096,0.6561,-1.6327,-6.1188
0.807718953,0.810138902,-1.0625,-0.1421,-0.3025,0.6561,-1.6327,-6.1188
0.810493907,0.812936028,-1.0625,-0.1421,-0.3025,0.6561,-1.3733,-6.3171
0.813285073,0.815577945,-1.0625,-0.1421,-0.3025,0.7935,-1.3733,-6.3171
0.815926989,0.818221053,-1.0625,-0.1421,-0.3025,0.7935,-1.3733,-6.3171
0.818570098,0.820866069,-1.0625,-0.1421,-0.3025,0.7935,-1.3733,-6.3171
0.821216067,0.823600968,-1.0625,-0.1421,-0.3025,0.7935,-1.3733,-6.3934
0.82406803,0.826489886,-1.0625,-0.1421,-0.3025,0.5341,-1.4954,-6.3934
0.826846084,0.829267939,-1.0652,-0.1404,-0.3062,0.5341,-1.4954,-6.3934
0.829622945,0.832036933,-1.0652,-0.1404,-0.3062,0.5341,-1.4954,-6.3934
0.832394084,0.834828099,-1.0652,-0.1404,-0.3062,0.5341,-1.7395,-6.4545
0.835184058,0.837607106,-1.0652,-0.1404,-0.3062,0.1221,-1.7395,-6.4545
0.837964972,0.840543946,-1.0652,-0.1404,-0.3062,0.1221,-1.7395,-6.4545
0.840901097,0.843744,-1.0652,-0.1404,-0.3062,0.1221,-1.7395,-6.4545
0.844102105,0.846522054,-1.0652,-0.1404,-0.3062,-0.0305,-1.9684,-6.6528
0.846878966,0.849305114,-1.0569,-0.1409,-0.3047,-0.0305,-1.9684,-6.6528
0.849662026,0.852086028,-1.0569,-0.1409,-0.3047,-0.0305,-1.9684,-6.6528
0.852441987,0.854869088,-1.0569,-0.1409,-0.3047,-0.0305,-1.9684,-6.6528
0.855225047,0.857650002,-1.0569,-0.1409,-0.3047,0.1526,-1.9531,-6.7596
0.858005008,0.860428056,-1.0569,-0.1409,-0.3047,0.1526,-1.9531,-6.7596
0.860784968,0.863182982,-1.0569,-0.1409,-0.3047,0.1526,-1.9531,-6.7596
0.863532027,0.865832051,-1.0569,-0.1409,-0.3047,0.1526,-1.9531,-6.7596
0.866179904,0.868474921,-1.0569,-0.147,-0.3042,0.3967,-1.8311,-7.2632
0.868822059,0.871119937,-1.0618,-0.147,-0.3042,0.3967,-1.8311,-7.2632
0.871468028,0.873774012,-1.0618,-0.147,-0.3042,0.3967,-1.8311,-7.2632
0.874122104,0.876418075,-1.0618,-0.147,-0.3042,0.3967,-1.8311,-7.2632
0.876768073,0.879061898,-1.0618,-0.147,-0.3042,0.0763,-1.8158,-6.958
0.879411897,0.88170906,-1.0618,-0.147,-0.3042,0.0763,-1.8158,-6.958
0.882059058,0.884367904,-1.0618,-0.147,-0.3042,0.0763,-1.8158,-6.958
0.884717902,0.887012919,-1.0618,-0.147,-0.3042,0.0763,-1.8158,-6.958
0.887362918,0.889665088,-1.064,-0.1494,-0.3022,-0.3204,-2.0447,-7.0343
0.890011987,0.892312011,-1.064,-0.1494,-0.3022,-0.3204,-2.0447,-7.0343
0.892725905,0.895038089,-1.064,-0.1494,-0.3022,-0.3204,-2.0447,-7.0343
0.895386895,0.897683104,-1.064,-0.1494,-0.3022,-0.3204,-2.0447,-7.0343
0.898030957,0.900325021,-1.064,-0.1494,-0.3022,-0.061,-1.9684,-7.3395
0.90067192,0.903092107,-1.064,-0.1494,-0.3022,-0.061,-1.9684,-7.3395
0.903449019,0.905873021,-1.064,-0.1494,-0.3022,-0.061,-1.9684,-7.3395
0.906230887,0.908652028,-1.0015,-0.1467,-0.3047,-0.061,-1.9684,-7.3395
0.909009894,0.911430081,-1.0576,-0.1467,-0.3047,0.5035,-1.7395,-7.431
0.911785087,0.91413494,-1.0576,-0.1467,-0.3047,0.5035,-1.7395,-7.431
0.914483031,0.916780909,-1.0576,-0.1467,-0.3047,0.5035,-1.7395,-7.431
0.917129001,0.919427117,-1.0576,-0.1467,-0.3047,0.5035,-1.7395,-7.431
0.91977497,0.922070941,-1.0576,-0.1467,-0.3047,0.6714,-1.8463,-7.2632
0.922420939,0.924849948,-1.0576,-0.1467,-0.3047,0.6714,-1.8463,-7.2632
0.925204953,0.927629908,-1.0576,-0.1467,-0.3047,0.6714,-1.8463,-7.2632
0.927984914,0.930405101,-1.0671,-0.1514,-0.3059,0.6714,-1.8463,-7.2632
0.93076106,0.933161935,-1.0671,-0.1514,-0.3059,0.7935,-1.77,-7.4158
0.933512887,0.935809096,-1.0671,-0.1514,-0.3059,0.7935,-1.77,-7.4158
0.936157903,0.938457927,-1.0671,-0.1514,-0.3059,0.7935,-1.77,-7.4158
0.938806018,0.941101035,-1.0671,-0.1514,-0.3059,0.7935,-1.77,-7.4158
0.941565951,0.944008073,-1.0671,-0.1514,-0.3059,0.5798,-1.7395,-7.1106
0.944364032,0.94678708,-1.0671,-0.1514,-0.3059,0.5798,-1.7395,-7.1106
0.947143992,0.949564895,-1.0583,-0.1523,-0.303,0.5798,-1.7395,-7.1106
0.949918946,0.952337941,-1.0583,-0.1523,-0.303,0.5798,-1.7395,-7.1106
0.952698907,0.955121955,-1.0583,-0.1523,-0.303,0.9003,-1.77,-6.8817
0.95547696,0.957898101,-1.0583,-0.1523,-0.303,0.9003,-1.77,-6.8817
0.958255013,0.960910996,-1.0583,-0.1523,-0.303,0.9003,-1.77,-6.8817
0.961266955,0.964070996,-1.0583,-0.1523,-0.303,0.9003,-1.77,-6.8817
0.964421948,0.966717919,-1.0583,-0.1523,-0.303,0.9918,-1.6785,-6.7749
0.967066964,0.969361028,-1.0632,-0.156,-0.2966,0.9918,-1.6785,-6.7749
0.969710072,0.972010096,-1.0632,-0.156,-0.2966,0.9918,-1.6785,-6.7749
0.972356996,0.974796018,-1.0632,-0.156,-0.2966,0.9918,-1.6785,-6.7749
0.975151023,0.977575025,-1.0632,-0.156,-0.2966,1.0681,-1.6937,-6.7291
0.97793003,0.980355939,-1.0632,-0.156,-0.2966,1.0681,-1.6937,-6.7291
0.980711898,0.983138999,-1.0632,-0.156,-0.2966,1.0681,-1.6937,-6.7291
0.983494004,0.985913953,-1.0632,-0.156,-0.2966,1.0681,-1.6937,-6.7291
0.986268958,0.988688907,-1.0632,-0.147,-0.3037,0.824,-1.4191,-6.6528
0.989042958,0.991465053,-1.0601,-0.147,-0.3037,0.824,-1.4191,-6.6528
0.991821011,0.994168958,-1.0601,-0.147,-0.3037,0.824,-1.4191,-6.6528
0.994518002,0.996814927,-1.0601,-0.147,-0.3037,0.824,-1.4191,-6.6528
0.997163018,0.999460896,-1.0601,-0.147,-0.3037,0.3662,-1.5869,-6.9733
0.999808988,1.002098998,-1.0601,-0.147,-0.3037,0.3662,-1.5869,-6.9733
1.002445897,1.004749974,-1.0601,-0.147,-0.3037,0.3662,-1.5869,-6.9733
1.005097112,1.007389983,-1.0601,-0.147,-0.3037,0.3662,-1.5869,-6.9733
1.007738074,1.010031899,-1.0618,-0.1516,-0.2942,0.2594,-1.4343,-6.6071
1.010379037,1.012841901,-1.0618,-0.1516,-0.2942,0.2594,-1.4343,-6.6071
1.013190946,1.015488109,-1.0618,-0.1516,-0.2942,0.2594,-1.4343,-6.6071
1.015835008,1.018129071,-1.0618,-0.1516,-0.2942,0.2594,-1.4343,-6.6071
1.018473109,1.020772895,-1.0618,-0.1516,-0.2942,-0.0916,-1.6632,-6.546
1.021119079,1.023488006,-1.0618,-0.1516,-0.2942,-0.0916,-1.6632,-6.546
1.023844918,1.026267966,-1.0618,-0.1516,-0.2942,-0.0916,-1.6632,-6.546
1.026622018,1.029040059,-1.0618,-0.1624,-0.301,-0.0916,-1.6632,-6.546
1.029396018,1.031820973,-1.0549,-0.1624,-0.301,0.2289,-1.2512,-6.2561
1.032174071,1.034608087,-1.0549,-0.1624,-0.301,0.2289,-1.2512,-6.2561
1.034964045,1.037383994,-1.0549,-0.1624,-0.301,0.2289,-1.2512,-6.2561
1.037738046,1.040162047,-1.0549,-0.1624,-0.301,0.2289,-1.2512,-6.2561
1.040514907,1.042947015,-1.0549,-0.1624,-0.301,0.7782,-1.1444,-5.8746
1.043300113,1.045721969,-1.0549,-0.1624,-0.301,0.7782,-1.1444,-5.8746
1.046076974,1.048499068,-1.0549,-0.1624,-0.3044,0.7782,-1.1444,-5.8746
1.048852881,1.051270923,-1.0564,-0.1536,-0.3044,0.7782,-1.1444,-5.8746
1.051624974,1.054057082,-1.0564,-0.1536,-0.3044,1.4038,-0.9155,-5.5237
1.054410895,1.056833943,-1.0564,-0.1536,-0.3044,1.4038,-0.9155,-5.5237
1.057191094,1.05961295,-1.0564,-0.1536,-0.3044,1.4038,-0.9155,-5.5237
1.060074052,1.062536916,-1.0564,-0.1536,-0.3044,1.4038,-0.9155,-5.5237
1.062883099,1.065185985,-1.0564,-0.1536,-0.3044,1.4343,-0.8087,-5.4474
1.065532884,1.067827901,-1.0564,-0.1536,-0.3044,1.4343,-0.8087,-5.4474
1.068176946,1.070474109,-1.0603,-0.1482,-0.2949,1.4343,-0.8087,-5.4474
1.070821961,1.073203048,-1.0603,-0.1482,-0.2949,1.4343,-0.8087,-5.4474
1.073557099,1.075982055,-1.0603,-0.1482,-0.2949,1.0681,-0.9003,-5.661
1.076336106,1.078829011,-1.0603,-0.1482,-0.2949,1.0681,-0.9003,-5.661
1.079339942,1.081751069,-1.0603,-0.1482,-0.2949,1.0681,-0.9003,-5.661
1.082534036,1.084958991,-1.0603,-0.1482,-0.2949,1.0681,-0.9003,-6.1493
1.08531495,1.087737998,-1.0603,-0.1482,-0.2949,0.9613,-0.7172,-6.1493
1.08809205,1.090506991,-1.0596,-0.1475,-0.3071,0.9613,-0.7172,-6.1493
1.09086295,1.093326053,-1.0596,-0.1475,-0.3071,0.9613,-0.7172,-6.1493
1.093682012,1.09610196,-1.0596,-0.1475,-0.3071,0.9613,-0.6866,-6.3324
1.096456012,1.098878106,-1.0596,-0.1475,-0.3071,0.9003,-0.6866,-6.3324
1.099234065,1.101648053,-1.0596,-0.1475,-0.3071,0.9003,-0.6866,-6.3324
1.102002105,1.104433021,-1.0596,-0.1475,-0.3071,0.9003,-0.6866,-6.3324
1.104787072,1.107203921,-1.0596,-0.1475,-0.3071,0.9003,-0.9766,-6.1951
1.107558927,1.109985074,-1.0591,-0.1509,-0.3047,0.946,-0.9766,-6.1951
1.110340079,1.112759074,-1.0591,-0.1509,-0.3047,0.946,-0.9766,-6.1951
1.113105973,1.11540409,-1.0591,-0.1509,-0.3047,0.946,-0.9766,-6.1951
1.115750035,1.118047913,-1.0591,-0.1509,-0.3047,0.946,-1.4191,-6.3324
1.118396005,1.120690068,-1.0591,-0.1509,-0.3047,1.3275,-1.4191,-6.3324
1.12103506,1.123471936,-1.0591,-0.1509,-0.3047,1.3275,-1.4191,-6.3324
1.123817882,1.126117906,-1.0591,-0.1509,-0.3047,1.3275,-1.4191,-6.3324
1.126464089,1.12876006,-1.0591,-0.1458,-0.3118,1.3275,-1.6479,-6.6376
1.129106959,1.131406983,-1.0566,-0.1458,-0.3118,1.4191,-1.6479,-6.6376
1.131751975,1.134279927,-1.0566,-0.1458,-0.3118,1.4191,-1.6479,-6.6376
1.134633979,1.137056073,-1.0566,-0.1458,-0.3118,1.4191,-1.6479,-6.6376
1.137407979,1.139831027,-1.0566,-0.1458,-0.3118,1.4191,-1.9379,-7.1106
1.140185079,1.142621001,-1.0566,-0.1458,-0.3118,1.4496,-1.9379,-7.1106
1.142972907,1.145395955,-1.0566,-0.1458,-0.3118,1.4496,-1.9379,-7.1106
1.145749053,1.148169001,-1.0566,-0.1458,-0.3118,1.4496,-1.9379,-7.1106
1.148520907,1.150942048,-1.0627,-0.1492,-0.3115,1.5259,-2.2888,-7.2632
1.151294907,1.153756102,-1.0627,-0.1492,-0.3115,1.5259,-2.2888,-7.2632
1.154108008,1.156530103,-1.0627,-0.1492,-0.3115,1.5259,-2.2888,-7.2632
1.156883916,1.159304103,-1.0627,-0.1492,-0.3115,1.5259,-2.2888,-7.2632
1.159657916,1.162081918,-1.0627,-0.1492,-0.3115,1.3733,-2.4414,-7.3547
1.162435016,1.164742907,-1.0627,-0.1492,-0.3115,1.3733,-2.4414,-7.3547
1.165087899,1.167386969,-1.0627,-0.1492,-0.3115,1.3733,-2.4414,-7.3547
1.167731961,1.170030078,-1.0623,-0.1511,-0.2998,1.3733,-2.4414,-7.3547
1.17037507,1.172733029,-1.0623,-0.1511,-0.2998,1.3733,-2.3956,-7.4768
1.173085889,1.175508937,-1.0623,-0.1511,-0.2998,1.1444,-2.3956,-7.4768
1.175972899,1.178395947,-1.0623,-0.1511,-0.2998,1.1444,-2.3956,-7.4768
1.178749045,1.181172093,-1.0623,-0.1511,-0.2998,1.1444,-2.3956,-7.4768
1.181523999,1.183956107,-1.0623,-0.1511,-0.2998,0.9766,-1.9531,-7.5378
1.184311112,1.186728915,-1.0623,-0.1511,-0.2998,0.9766,-1.9531,-7.5378
1.18708392,1.189587077,-1.0552,-0.1526,-0.3044,0.9766,-1.9531,-7.5378
1.189943036,1.192367038,-1.0552,-0.1526,-0.3044,0.9766,-1.9531,-7.5378
1.192729911,1.195148906,-1.0552,-0.1526,-0.3044,1.0071,-1.9989,-7.6599
1.195502957,1.198053082,-1.0552,-0.1526,-0.3044,1.0071,-1.9989,-7.6599
1.198404035,1.200786075,-1.0552,-0.1526,-0.3044,1.0071,-1.9989,-7.6599
1.2019281,1.204366883,-1.0552,-0.1526,-0.3044,1.0071,-1.9989,-7.6599
1.204723081,1.207148036,-1.0552,-0.1526,-0.3044,1.2207,-2.3956,-7.8888
1.207500895,1.209926089,-1.0615,-0.156,-0.304,1.2207,-2.3956,-7.8888
1.210279902,1.212738952,-1.0615,-0.156,-0.304,1.2207,-2.3956,-7.8888
1.213086089,1.215374907,-1.0615,-0.156,-0.304,1.2207,-2.3956,-3.9825
1.215721091,1.218013963,-1.0615,-0.156,-0.304,1.1444,-2.5482,-7.7667
1.218359908,1.220656117,-1.0615,-0.156,-0.304,1.1444,-2.5482,-7.7667
1.221001109,1.223341903,-1.0615,-0.156,-0.304,1.1444,-2.5482,-7.7667
1.223686894,1.225985965,-1.0615,-0.156,-0.304,1.1444,-2.5482,-7.7667
1.22633191,1.228625974,-1.0615,-0.156,-0.3,0.9918,-2.2736,-7.8125
1.228974065,1.231269082,-1.062,-0.1567,-0.3,0.9918,-2.2736,-7.8125
1.231616935,1.233920058,-1.062,-0.1567,-0.3,0.9918,-2.2736,-7.8125
1.234266004,1.236563882,-1.062,-0.1567,-0.3,0.9918,-2.2736,-7.8125
1.236910066,1.23921009,-1.062,-0.1567,-0.3,0.9613,-2.5635,-7.782
1.239557942,1.241853913,-1.062,-0.1567,-0.3,0.9613,-2.5635,-7.782
1.242201051,1.244599065,-1.062,-0.1567,-0.3,0.9613,-2.5635,-7.782
1.244946917,1.247241935,-1.062,-0.1567,-0.3,0.9613,-2.5635,-7.782
1.247591933,1.249884089,-1.0576,-0.1587,-0.2954,0.6409,-2.3193,-7.7972
1.250230988,1.252659043,-1.0576,-0.1587,-0.2954,0.6409,-2.3193,-7.7972
1.253014048,1.25543209,-1.0576,-0.1587,-0.2954,0.6409,-2.3193,-7.7972
1.255784949,1.25820609,-1.0576,-0.1587,-0.2954,0.6409,-2.3193,-7.7972
1.258559903,1.260981997,-1.0576,-0.1587,-0.2954,0.4425,-2.3804,-7.5989
1.261337956,1.263709029,-1.0576,-0.1587,-0.2954,0.4425,-2.3804,-7.5989
1.264055928,1.266349992,-1.0576,-0.1587,-0.2954,0.4425,-2.3804,-7.5989
1.266694983,1.268984994,-1.0576,-0.1587,-0.2881,0.4425,-2.3804,-7.5989
1.269329986,1.271623095,-1.0608,-0.157,-0.2881,0.5035,-1.8921,-7.3242
1.271970948,1.274390897,-1.0608,-0.157,-0.2881,0.5035,-1.8921,-7.3242
1.274747094,1.277167996,-1.0608,-0.157,-0.2881,0.5035,-1.8921,-7.3242
1.277521094,1.279945096,-1.0608,-0.157,-0.2881,0.5035,-1.8921,-7.3242
1.280298909,1.282721003,-1.0608,-0.157,-0.2881,0.5341,-2.0447,-7.2784
1.283070048,1.285361966,-1.0608,-0.157,-0.2881,0.5341,-2.0447,-7.2784
1.285709104,1.288002929,-1.0608,-0.157,-0.2881,0.5341,-2.0447,-7.2784
1.28835102,1.290646991,-1.0569,-0.1553,-0.2979,0.5341,-2.0447,-7.2784
1.290995082,1.29339095,-1.0569,-0.1553,-0.2979,0.4883,-1.7395,-7.5531
1.293858966,1.296277007,-1.0569,-0.1553,-0.2979,0.4883,-1.7395,-7.5531
1.296632012,1.299054107,-1.0569,-0.1553,-0.2979,0.4883,-1.7395,-7.5531
1.299409112,1.301824054,-1.0569,-0.1553,-0.2979,0.4883,-1.7395,-7.5531
1.302178105,1.304614028,-1.0569,-0.1553,-0.2979,0.473,-1.8616,-7.7209
1.304968079,1.307389935,-1.0569,-0.1553,-0.2979,0.473,-1.8616,-7.7209
1.307743987,1.310270986,-1.0652,-0.1604,-0.2942,0.473,-1.8616,-7.7209
1.310626944,1.313029965,-1.0652,-0.1604,-0.2942,0.473,-1.8616,-7.7209
1.313795051,1.316089114,-1.0652,-0.1604,-0.2942,0.0458,-1.9531,-8.0109
1.316440066,1.318732938,-1.0652,-0.1604,-0.2942,0.0458,-1.9531,-8.0109
1.319081983,1.321377953,-1.0652,-0.1604,-0.2942,0.0458,-1.9531,-8.0109
1.321726998,1.324170073,-1.0652,-0.1604,-0.2942,0.0458,-1.9531,-8.0109
1.32452794,1.326950988,-1.0652,-0.1604,-0.2942,0.1984,-2.0752,-8.0414
1.327305993,1.329728087,-1.0635,-0.1636,-0.2959,0.1984,-2.0752,-8.0414
1.330083093,1.332545957,-1.0635,-0.1636,-0.2959,0.1984,-2.0752,-8.0414
1.332900962,1.335323056,-1.0635,-0.1636,-0.2959,0.1984,-2.0752,-8.0414
1.335679015,1.33810397,-1.0635,-0.1636,-0.2959,-0.1373,-2.1667,-8.1177
1.338458976,1.340877971,-1.0635,-0.1636,-0.2959,-0.1373,-2.1667,-8.1177
1.341232976,1.343600949,-1.0635,-0.1636,-0.2959,-0.1373,-2.1667,-8.1177
1.343948087,1.346245965,-1.0635,-0.1636,-0.2959,-0.1373,-2.1667,-8.1177
1.34659501,1.348890981,-1.0635,-0.1636,-0.2886,0.2594,-2.1362,-8.0872
1.349240979,1.351535043,-1.0579,-0.1602,-0.2886,0.2594,-2.1362,-8.0872
1.351884087,1.354187926,-1.0579,-0.1602,-0.2886,0.2594,-2.1362,-8.0872
1.354535064,1.356832942,-1.0579,-0.1602,-0.2886,0.2594,-2.1362,-8.0872
1.357181033,1.359472951,-1.0579,-0.1602,-0.2886,0.2289,-1.8768,-8.1024
1.359821996,1.36211892,-1.0579,-0.1602,-0.2886,0.2289,-1.8768,-8.1024
1.362467965,1.364803037,-1.0579,-0.1602,-0.2886,0.2289,-1.8768,-8.1024
1.365152081,1.367445907,-1.0579,-0.1602,-0.2886,0.2289,-1.8768,-8.1024
1.367794951,1.370089015,-1.0581,-0.1599,-0.2939,0.2441,-1.4648,-8.667
1.37043806,1.372883996,-1.0581,-0.1599,-0.2939,0.2441,-1.4648,-8.667
1.373239001,1.37566801,-1.0581,-0.1599,-0.2939,0.2441,-1.4648,-8.667
1.376023015,1.378447017,-1.0581,-0.1599,-0.2939,0.2441,-1.4648,-8.667
1.378803929,1.381226977,-1.0581,-0.1599,-0.2939,-0.0458,-1.9531,-8.5602
1.38158389,1.384021958,-1.0581,-0.1599,-0.2939,-0.0458,-1.9531,-8.5602
1.384376964,1.386803111,-1.0581,-0.1599,-0.2939,-0.0458,-1.9531,-8.5602
1.387160024,1.389585933,-1.0581,-0.1687,-0.2935,-0.0458,-1.9531,-8.5602
1.389943084,1.392365893,-1.0569,-0.1687,-0.2935,0.2747,-1.8616,-8.4686
1.392725905,1.395152053,-1.0569,-0.1687,-0.2935,0.2747,-1.8616,-8.4686
1.395506104,1.397921046,-1.0569,-0.1687,-0.2935,0.2747,-1.8616,-8.4686
1.398277959,1.400702914,-1.0569,-0.1687,-0.2935,0.2747,-1.8616,-8.4686
1.401059112,1.403532943,-1.0569,-0.1687,-0.2935,0.5646,-1.8768,-8.6517
1.403888902,1.406315049,-1.0569,-0.1687,-0.2935,0.5646,-1.8768,-8.6517
1.406670054,1.409090003,-1.0569,-0.1687,-0.2983,0.5646,-1.8768,-8.6517
1.409448108,1.411868056,-1.0596,-0.1606,-0.2983,0.5646,-1.8768,-9.0637
1.412331065,1.414654931,-1.0596,-0.1606,-0.2983,0.4425,-1.9226,-9.0637
1.415003022,1.417299947,-1.0596,-0.1606,-0.2983,0.4425,-1.9226,-9.0637
1.417648038,1.419939002,-1.0596,-0.1606,-0.2983,0.4425,-1.9226,-9.0637
1.420289,1.422591885,-1.0596,-0.1606,-0.2983,0.4425,-1.9226,-9.4757
1.422941884,1.425236901,-1.0596,-0.1606,-0.2983,0.4883,-2.0447,-9.4757
1.425585946,1.427885016,-1.0596,-0.1606,-0.2983,0.4883,-2.0447,-9.4757
1.428231915,1.430606088,-1.0583,-0.1589,-0.2979,0.4883,-2.0447,-9.4757
1.430956086,1.433742007,-1.0583,-0.1589,-0.2979,0.4883,-2.0447,-9.6436
1.434101066,1.436525067,-1.0583,-0.1589,-0.2979,0.2899,-2.3804,-9.6436
1.436881026,1.439300021,-1.0583,-0.1589,-0.2979,0.2899,-2.3804,-9.6436
1.439655026,1.442075929,-1.0583,-0.1589,-0.2979,0.2899,-2.3804,-9.6436
1.442430934,1.444862088,-1.0583,-0.1589,-0.2979,0.2899,-2.3804,-10.2844
1.445223054,1.447642049,-1.0583,-0.1589,-0.2979,0.0763,-2.1973,-10.2844
1.448003014,1.450423917,-1.0579,-0.1658,-0.2939,0.0763,-2.1973,-10.2844
1.450783929,1.453210076,-1.0579,-0.1658,-0.2939,0.0763,-2.1973,-10.2844
1.453571042,1.45599409,-1.0579,-0.1658,-0.2939,-3.83,-2.2583,-10.3912
1.456351003,1.458771905,-1.0579,-0.1658,-0.2939,-0.1831,-2.2583,-10.3912
1.459131917,1.461549958,-1.0579,-0.1658,-0.2939,-0.1831,-2.2583,-10.3912
1.461908063,1.464245995,-1.0579,-0.1658,-0.2939,-0.1831,-2.2583,-10.3912
1.464599093,1.466892919,-1.0579,-0.1658,-0.2939,-0.1831,-2.5482,-10.5133
1.467242917,1.469541987,-1.0579,-0.1733,-0.2888,-0.2136,-2.5482,-10.5133
1.469891986,1.472186049,-1.0532,-0.1733,-0.2888,-0.2136,-2.5482,-10.5133
1.472564897,1.474863013,-1.0532,-0.1733,-0.2888,-0.2136,-2.5482,-10.5133
1.475213012,1.477509936,-1.0532,-0.1733,-0.2888,-0.2136,-2.5482,-10.4675
1.477859935,1.480153045,-1.0532,-0.1733,-0.2888,0.1068,-2.4719,-10.4675
1.480505904,1.482898911,-1.0532,-0.1733,-0.2888,0.1068,-2.4719,-10.4675
1.483251056,1.485548934,-1.0532,-0.1733,-0.2888,0.1068,-2.4719,-10.4675
1.485901078,1.488198956,-1.0532,-0.1733,-0.2888,0.1068,-2.4719,-10.0555
1.488549909,1.490847072,-1.0618,-0.1812,-0.2903,0.2899,-2.2888,-10.0555
1.491200885,1.493679007,-1.0618,-0.1812,-0.2903,0.2899,-2.2888,-10.0555
1.494039973,1.496465882,-1.0618,-0.1812,-0.2903,0.2899,-2.2888,-10.0555
1.496823987,1.499242982,-1.0618,-0.1812,-0.2903,0.2899,-2.2888,-10.0555
1.499601087,1.502022942,-1.0618,-0.1812,-0.2903,0.1373,-2.6398,-10.0555
1.502382955,1.504701098,-1.0618,-0.1812,-0.2903,0.1373,-2.6398,-10.0555
1.505053004,1.507348021,-1.0618,-0.1812,-0.2903,0.1373,-2.6398,-10.0555
1.50769802,1.509994944,-1.0596,-0.1814,-0.2866,0.1373,-2.6398,-9.7809
1.510342082,1.51264306,-1.0596,-0.1814,-0.2866,0.6714,-2.3041,-9.7809
1.512995919,1.515382012,-1.0596,-0.1814,-0.2866,0.6714,-2.3041,-9.7809
1.515737018,1.518128117,-1.0596,-0.1814,-0.2866,0.6714,-2.3041,-9.7809
1.518482884,1.520868977,-1.0596,-0.1814,-0.2866,0.6714,-2.3041,-9.7656
1.521222075,1.523584088,-1.0596,-0.1814,-0.2866,0.5188,-2.0599,-9.7656
1.523930987,1.526229104,-1.0596,-0.1814,-0.2866,0.5188,-2.0599,-9.7656
1.52668496,1.528983077,-1.0596,-0.1814,-0.2866,0.5188,-2.0599,-9.7656
1.529334029,1.531628093,-1.0532,-0.1777,-0.2834,0.5188,-2.0599,-9.7198
1.531978091,1.534419021,-1.0532,-0.1777,-0.2834,0.4883,-1.7242,-9.7198
1.53477498,1.537195882,-1.0532,-0.1777,-0.2834,0.4883,-1.7242,-9.7198
1.537549933,1.539969882,-1.0532,-0.1777,-0.2834,0.4883,-1.7242,-9.7198
1.540326079,1.542760095,-1.0532,-0.1777,-0.2834,0.4883,-1.7242,-9.3842
1.543117961,1.545536002,-1.0532,-0.1777,-0.2834,0.1984,-1.6479,-9.3842
1.5458891,1.548310956,-1.0532,-0.1777,-0.2834,0.1984,-1.6479,-9.3842
1.548704108,1.551229915,-1.053,-0.1831,-0.2949,0.1984,-1.6479,-9.3842
1.551587066,1.554346045,-1.053,-0.1831,-0.2949,0.1984,-1.6785,-9.2926
1.55469509,1.556991061,-1.053,-0.1831,-0.2949,0.2594,-1.6785,-9.2926
1.557338914,1.559636077,-1.053,-0.1831,-0.2949,0.2594,-1.6785,-9.2926
1.55998393,1.5622799,-1.053,-0.1831,-0.2949,0.2594,-1.6785,-9.2926
1.562634906,1.565058907,-1.053,-0.1831,-0.2949,0.2594,-1.3275,-8.7891
1.565416058,1.567837914,-1.053,-0.1831,-0.2949,0.4272,-1.3275,-8.7891
1.568191966,1.570610961,-1.0557,-0.187,-0.2939,0.4272,-1.3275,-8.7891
1.570965966,1.573401889,-1.0557,-0.187,-0.2939,0.4272,-1.3275,-8.7891
1.573756894,1.576175889,-1.0557,-0.187,-0.2939,0.1831,-1.236,-9.1095
1.576532086,1.578952035,-1.0557,-0.187,-0.2939,0.1831,-1.236,-9.1095
1.57930704,1.581727942,-1.0557,-0.187,-0.2939,0.1831,-1.236,-9.1095
1.582082948,1.584449967,-1.0557,-0.187,-0.2939,0.1831,-1.236,-9.1095
1.584799012,1.587094029,-1.0557,-0.187,-0.2939,-0.0763,-1.0986,-8.728
1.587444028,1.589741906,-1.0557,-0.1907,-0.2834,-0.0763,-1.0986,-8.728
1.590091905,1.592388114,-1.0603,-0.1907,-0.2834,-0.0763,-1.0986,-8.728
1.592735967,1.595035991,-1.0603,-0.1907,-0.2834,-0.0763,-1.0986,-8.728
1.595385035,1.597680053,-1.0603,-0.1907,-0.2834,-0.0763,-0.946,-8.3771
1.598029097,1.600325068,-1.0603,-0.1907,-0.2834,-0.1221,-0.946,-8.3771
1.600676974,1.603059968,-1.0603,-0.1907,-0.2834,-0.1221,-0.946,-8.3771
1.60341092,1.605706891,-1.0603,-0.1907,-0.2834,-0.1221,-0.946,-8.3771
1.606056889,1.608354052,-1.0603,-0.1907,-0.2834,-0.1221,-0.7935,-7.9956
1.608703097,1.610996922,-1.0522,-0.187,-0.2832,0,-0.7935,-7.9956
1.61134406,1.613853892,-1.0522,-0.187,-0.2832,0,-0.7935,-7.9956
1.614208898,1.616627892,-1.0522,-0.187,-0.2832,0,-0.7935,-7.9956
1.61698099,1.619404038,-1.0522,-0.187,-0.2832,0,-0.6104,-7.5989
1.619759997,1.622183045,-1.0522,-0.187,-0.2832,0.1221,-0.6104,-7.5989
1.622548064,1.624972066,-1.0522,-0.187,-0.2832,0.1221,-0.6104,-7.5989
1.625329932,1.627748927,-1.0522,-0.187,-0.2832,0.1221,-0.6104,-7.5989
1.628103932,1.630521974,-1.0505,-0.1895,-0.2913,0.1068,-0.5646,-7.4005
1.630877932,1.633341035,-1.0505,-0.1895,-0.2913,0.1068,-0.5646,-7.4005
1.63369604,1.636116942,-1.0505,-0.1895,-0.2913,0.1068,-0.5646,-7.4005
1.636472901,1.638894042,-1.0505,-0.1895,-0.2913,0.1068,-0.5646,-7.4005
1.639249047,1.641668996,-1.0505,-0.1895,-0.2913,-0.0763,-0.3967,-7.3242
1.642024955,1.644365987,-1.0505,-0.1895,-0.2913,-0.0763,-0.3967,-7.3242
1.644824943,1.647113046,-1.0505,-0.1895,-0.2913,-0.0763,-0.3967,-7.3242
1.64746209,1.649755916,-1.0505,-0.1895,-0.2847,-0.0763,-0.3967,-7.3242
1.650103053,1.65239807,-1.0488,-0.188,-0.2847,0.1373,-0.1068,-7.3395
1.652745923,1.655048093,-1.0488,-0.188,-0.2847,0.1373,-0.1068,-7.3395
1.655394992,1.65768691,-1.0488,-0.188,-0.2847,0.1373,-0.1068,-7.3395
1.658035954,1.660331925,-1.0488,-0.188,-0.2847,0.1373,-0.1068,-7.3395
1.660680016,1.663073024,-1.0488,-0.188,-0.2847,0.1373,-0.2594,-6.6376
1.663427075,1.66582199,-1.0488,-0.188,-0.2847,0.3967,-0.2594,-6.6376
1.666175088,1.668765029,-1.0488,-0.188,-0.2847,0.3967,-0.2594,-6.6376
1.669120034,1.671530923,-1.0554,-0.1802,-0.292,0.3967,-0.2594,-6.6376
1.672268113,1.674739083,-1.0554,-0.1802,-0.292,0.7019,-0.0153,-7.309
1.675095996,1.677520951,-1.0554,-0.1802,-0.292,0.7019,-0.0153,-7.309
1.677879056,1.680298051,-1.0554,-0.1802,-0.292,0.7019,-0.0153,-7.309
1.680655917,1.683119973,-1.0554,-0.1802,-0.292,0.7019,-0.0153,-7.309
1.683474978,1.685900887,-1.0554,-0.1802,-0.292,0.4425,-0.1984,-7.1564
1.686253985,1.688677033,-1.0554,-0.1802,-0.292,0.4425,-0.1984,-7.1564
1.689032992,1.691455087,-1.0571,-0.1819,-0.29,0.4425,-0.1984,-7.1564
1.691811046,1.694245061,-1.0571,-0.1819,-0.29,0.4425,-0.1984,-7.1564
1.694600066,1.697023114,-1.0571,-0.1819,-0.29,0.5493,0.0458,-7.2479
1.697377881,1.699794015,-1.0571,-0.1819,-0.29,0.5493,0.0458,-7.2479
1.700150927,1.702583989,-1.0571,-0.1819,-0.29,0.5493,0.0458,-7.2479
1.702933034,1.705232104,-1.0571,-0.1819,-0.29,0.5493,0.0458,-7.2479
1.705579957,1.70787402,-1.0571,-0.1819,-0.29,-0.1831,0.0153,-7.1564
1.708223065,1.710523089,-1.0588,-0.1877,-0.29,-0.1831,0.0153,-7.1564
1.710869988,1.713259896,-1.0588,-0.1877,-0.29,-0.1831,0.0153,-7.1564
1.713608941,1.715903005,-1.0588,-0.1877,-0.29,-0.1831,0.0153,-7.1564
1.716253957,1.718548974,-1.0588,-0.1877,-0.29,-0.2289,-0.0763,-6.9733
1.718896111,1.721192082,-1.0588,-0.1877,-0.29,-0.2289,-0.0763,-6.9733
1.721539935,1.724061927,-1.0588,-0.1877,-0.29,-0.2289,-0.0763,-6.9733
1.724415978,1.726829013,-1.0588,-0.1877,-0.29,-0.2289,-0.0763,-6.9733
1.727184018,1.729592999,-1.0588,-0.1877,-0.2883,0.2136,0.1678,-6.9122
1.729946097,1.732358893,-1.0544,-0.1914,-0.2883,0.2136,0.1678,-6.9122
1.732720097,1.73513194,-1.0544,-0.1914,-0.2883,0.2136,0.1678,-6.9122
1.735482892,1.737894019,-1.0544,-0.1914,-0.2883,0.2136,0.1678,-6.9122
1.738247117,1.740657052,-1.0544,-0.1914,-0.2883,0.4272,0.5188,-6.7596
1.741009911,1.743440112,-1.0544,-0.1914,-0.2883,0.4272,0.5188,-6.7596
1.743793925,1.746222934,-1.0544,-0.1914,-0.2883,0.4272,0.5188,-6.7596
1.746576985,1.748995027,-1.0544,-0.1914,-0.2883,0.4272,0.5188,-6.7596
1.749349078,1.751774033,-1.05,-0.1865,-0.2983,0.3357,0.5493,-6.6681
1.752129039,1.754564008,-1.05,-0.1865,-0.2983,0.3357,0.5493,-6.6681
1.754918059,1.757342061,-1.05,-0.1865,-0.2983,0.3357,0.5493,-6.6681
1.757696113,1.760112962,-1.05,-0.1865,-0.2983,0.3357,0.5493,-6.6681
1.760467013,1.76294609,-1.05,-0.1865,-0.2983,0.2747,0.6866,-6.5308
1.763415059,1.765841922,-1.05,-0.1865,-0.2983,0.2747,0.6866,-6.5308
1.766198119,1.768619021,-1.05,-0.1865,-0.2983,0.2747,0.6866,-6.5308
1.768974027,1.771397075,-1.0613,-0.1924,-0.3071,0.2747,0.6866,-6.8207
1.771750888,1.774181088,-1.0613,-0.1924,-0.3071,0.6866,0.4578,-6.8207
1.774536094,1.776958903,-1.0613,-0.1924,-0.3071,0.6866,0.4578,-6.8207
1.777312955,1.779806098,-1.0613,-0.1924,-0.3071,0.6866,0.4578,-6.8207
1.780161103,1.782582005,-1.0613,-0.1924,-0.3071,0.6866,0.4578,-6.3324
1.783314904,1.785611113,-1.0613,-0.1924,-0.3071,1.0834,0.6409,-6.3324
1.78595992,1.788257083,-1.0613,-0.1924,-0.3071,1.0834,0.6409,-6.3324
1.788603982,1.790903052,-1.0547,-0.187,-0.2932,1.0834,0.6409,-6.3324
1.791248998,1.793607911,-1.0547,-0.187,-0.2932,1.0834,0.6409,-6.2714
1.793961963,1.796385964,-1.0547,-0.187,-0.2932,1.3123,0.8087,-6.2714
1.79674097,1.79916211,-1.0547,-0.187,-0.2932,1.3123,0.8087,-6.2714
1.799518069,1.801937064,-1.0547,-0.187,-0.2932,1.3123,0.8087,-6.2714
1.80228897,1.804752072,-1.0547,-0.187,-0.2932,1.3123,0.473,-6.3171
1.805107078,1.807528933,-1.0547,-0.187,-0.2932,1.2817,0.473,-6.3171
1.807883939,1.81030198,-1.0547,-0.1721,-0.2974,1.2817,0.473,-6.3171
1.810656032,1.813097915,-1.0564,-0.1721,-0.2974,1.2817,0.473,-6.3171
1.813444098,1.815740069,-1.0564,-0.1721,-0.2974,1.2817,0.5341,-6.5765
1.816086968,1.818382939,-1.0564,-0.1721,-0.2974,0.6104,0.5341,-6.5765
1.81873103,1.821025094,-1.0564,-0.1721,-0.2974,0.6104,0.5341,-6.5765
1.821375092,1.823717078,-1.0564,-0.1721,-0.2974,0.6104,0.5341,-6.5765
1.824064931,1.826360902,-1.0564,-0.1721,-0.2974,0.6104,0.5035,-7.0038
1.826708039,1.82900401,-1.0564,-0.1721,-0.2974,0.1831,0.5035,-7.0038
1.829352101,1.831648072,-1.0564,-0.1926,-0.2974,0.1831,0.5035,-7.0038
1.831994018,1.834408959,-1.0564,-0.1926,-0.2974,0.1831,0.5035,-7.0038
1.834758958,1.837053021,-1.0564,-0.1926,-0.2974,0.1831,0.5035,-6.6528
1.837402066,1.839697083,-1.0564,-0.1926,-0.2974,-0.4578,0.1831,-6.6528
1.840043982,1.842340907,-1.0564,-0.1926,-0.2974,-0.4578,0.1831,-6.6528
1.842690905,1.845111092,-1.0564,-0.1926,-0.2974,-0.4578,0.1831,-6.6528
1.845466098,1.847883901,-1.0564,-0.1926,-0.2974,-0.4578,0.1831,-6.5765
1.848236998,1.850662908,-1.0564,-0.1865,-0.2964,-0.3967,-0.061,-6.5765
1.851020059,1.853449067,-1.053,-0.1865,-0.2964,-0.3967,-0.061,-6.5765
1.853804072,1.856225928,-1.053,-0.1865,-0.2964,-0.3967,-0.061,-6.5765
1.856580933,1.859000882,-1.053,-0.1865,-0.2964,-0.3967,3.8452,-6.2561
1.859353026,1.861770114,-1.053,-0.1865,-0.2964,-0.1984,0.1373,-6.2561
1.862126073,1.864556035,-1.053,-0.1865,-0.2964,-0.1984,0.1373,-6.2561
1.864908894,1.867330989,-1.053,-0.1865,-0.2964,-0.1984,0.1373,-6.2561
1.867685994,1.870110949,-1.053,-0.1865,-0.2925,3.7079,0.3967,-6.3782
1.870465001,1.872914037,-1.0508,-0.1968,-0.2925,0.4578,0.3967,-6.3782
1.873261889,1.875561913,-1.0508,-0.1968,-0.2925,0.4578,0.3967,-6.3782
1.875908097,1.878205975,-1.0508,-0.1968,-0.2925,0.4578,0.3967,-6.3782
1.878661117,1.880958041,-1.0508,-0.1968,-0.2925,0.4578,0.3357,-6.0425
1.88130494,1.883692941,-1.0508,-0.1968,-0.2925,0.7019,0.3357,-6.0425
1.884050092,1.8864791,-1.0508,-0.1968,-0.2925,0.7019,0.3357,-6.0425
1.886834105,1.889263114,-1.0508,-0.1968,-0.2925,0.7019,0.3357,-6.0425
1.889615973,1.892039021,-1.0547,-0.1907,-0.2942,0.7019,0.351,-6.1951
1.89239498,1.894828996,-1.0547,-0.1907,-0.2942,0.4425,0.351,-6.1951
1.895184955,1.897611102,-1.0547,-0.1907,-0.2942,0.4425,0.351,-6.1951
1.897967061,1.900536021,-1.0547,-0.1907,-0.2942,0.4425,0.351,-6.1951
1.900890073,1.903742036,-1.0547,-0.1907,-0.2942,0.351,0.3967,-5.9662
1.904098948,1.906521996,-1.0547,-0.1907,-0.2942,0.351,0.3967,-5.9662
1.906877955,1.90929695,-1.0547,-0.1907,-0.2942,0.351,0.3967,-5.9662
1.909651956,1.91207405,-1.0532,-0.1914,-0.2944,0.351,0.3967,-5.9662
1.912429055,1.914859017,-1.0532,-0.1914,-0.2944,0.2289,0.3967,-5.8594
1.915214023,1.917638978,-1.0532,-0.1914,-0.2944,0.2289,0.3967,-5.8594
1.917993983,1.920416078,-1.0532,-0.1914,-0.2944,0.2289,0.3967,-5.8594
1.920769891,1.923171958,-1.0532,-0.1914,-0.2944,0.2289,0.3967,-5.8594
1.923520049,1.92581602,-1.0532,-0.1914,-0.2944,0.0153,0.2899,-5.7678
1.926165065,1.928460082,-1.0532,-0.1914,-0.2944,0.0153,0.2899,-5.7678
1.928808888,1.931101998,-1.0481,-0.1836,-0.2957,0.0153,0.2899,-5.7678
1.931450089,1.933757028,-1.0481,-0.1836,-0.2957,0.0153,0.2899,-5.7678
1.934105119,1.936402043,-1.0481,-0.1836,-0.2957,0.2899,0.473,-5.9509
1.936749896,1.939048966,-1.0481,-0.1836,-0.2957,0.2899,0.473,-5.9509
1.939397057,1.941697081,-1.0481,-0.1836,-0.2957,0.2899,0.473,-5.9509
1.942043027,1.944348058,-1.0481,-0.1836,-0.2957,0.2899,0.473,-5.9509
1.944694957,1.946995934,-1.0481,-0.1836,-0.2957,0.2747,0.3815,-5.9814
1.947344026,1.949641904,-1.0481,-0.1836,-0.2957,0.2747,0.3815,-5.9814
1.949988088,1.952285966,-1.0508,-0.1929,-0.2966,0.2747,0.3815,-5.9814
1.952750882,1.955063065,-1.0508,-0.1929,-0.2966,0.2747,0.3815,-5.9814
1.955409964,1.957708081,-1.0508,-0.1929,-0.2966,0.7172,0.2289,-5.7678
1.958054027,1.960349044,-1.0508,-0.1929,-0.2966,0.7172,0.2289,-5.7678
1.960694989,1.963108977,-1.0508,-0.1929,-0.2966,0.7172,0.2289,-5.7678
1.963464936,1.965886077,-1.0508,-0.1929,-0.2966,0.7172,0.2289,-5.7678
1.96623989,1.968665084,-1.0508,-0.1929,-0.2966,0.6866,0.1678,-5.8136
1.969018897,1.971440991,-1.0513,-0.1887,-0.2979,0.6866,0.1678,-5.8136
1.971795043,1.974143943,-1.0513,-0.1887,-0.2979,0.6866,0.1678,-5.8136
1.974492034,1.976784905,-1.0513,-0.1887,-0.2979,0.6866,0.1678,-5.8136
1.977132996,1.979429921,-1.0513,-0.1887,-0.2979,0.8698,0.2136,-6.1493
1.979777059,1.982073029,-1.0513,-0.1887,-0.2979,0.8698,0.2136,-6.1493
1.982419928,1.9849269,-1.0513,-0.1887,-0.2979,0.8698,0.2136,-6.1493
1.985281905,1.9877009,-1.0513,-0.1887,-0.2979,0.8698,0.2136,-6.1493
1.988058051,1.990478953,-1.0513,-0.1262,-0.3052,1.5717,-0.0458,-6.134
1.990834912,1.993221005,-1.0535,-0.1831,-0.3052,1.5717,-0.0458,-6.134
1.99357005,1.995864114,-1.0535,-0.1831,-0.3052,1.5717,-0.0458,-6.134
1.996320924,1.998616895,-1.0535,-0.1831,-0.3052,1.5717,-0.0458,-6.134
1.998964986,2.00126191,-1.0535,-0.1831,-0.3052,1.9379,-0.5188,-6.6833
2.001609048,2.004022082,-1.0535,-0.1831,-0.3052,1.9379,-0.5188,-6.6833
2.004378041,2.00679799,-1.0535,-0.1831,-0.3052,1.9379,-0.5188,-6.6833
2.007151088,2.009563884,-1.0535,-0.1831,-0.3052,1.9379,-0.5188,-6.6833
2.009916982,2.01234003,-1.0464,-0.1765,-0.3032,1.3275,-0.6104,-7.1564
2.012699088,2.01511999,-1.0464,-0.1765,-0.3032,1.3275,-0.6104,-7.1564
2.015474996,2.017955026,-1.0464,-0.1765,-0.3032,1.3275,-0.6104,-7.1564
2.018307885,2.02086111,-1.0464,-0.1765,-0.3032,1.3275,-0.6104,-7.1564
2.021216115,2.024372062,-1.0464,-0.1765,-0.3032,1.5411,-0.946,-7.9651
2.024719914,2.027019938,-1.0464,-0.1765,-0.3032,1.5411,-0.946,-7.9651
2.027365884,2.029664954,-1.0464,-0.1765,-0.3032,1.5411,-0.946,-7.9651
2.030009946,2.032305917,-1.0522,-0.1697,-0.3215,1.5411,-0.946,-7.9651
2.032679995,2.035088977,-1.0522,-0.1697,-0.3215,0.9766,-1.5106,-8.9111
2.035444936,2.037850102,-1.0522,-0.1697,-0.3215,0.9766,-1.5106,-8.9111
2.038205108,2.040615043,-1.0522,-0.1697,-0.3215,0.9766,-1.5106,-8.9111
2.040990075,2.043651065,-1.0522,-0.1697,-0.3215,0.9766,-1.5106,-8.9111
2.044008931,2.046431979,-1.0522,-0.1697,-0.3215,0.7782,-2.2583,-10.2539
2.046791991,2.04921194,-1.0522,-0.1697,-0.3215,0.7782,-2.2583,-10.2539
2.049570998,2.051995953,-1.0645,-0.1616,-0.3157,0.7782,-2.2583,-10.2539
2.052355012,2.054675063,-1.0645,-0.1616,-0.3157,0.7782,-2.2583,-10.2539
2.055026969,2.057325086,-1.0645,-0.1616,-0.3157,0.9003,-3.0518,-10.9253
2.057677945,2.059967956,-1.0645,-0.1616,-0.3157,0.9003,-3.0518,-10.9253
2.060318908,2.062622031,-1.0645,-0.1616,-0.3157,0.9003,-3.0518,-10.9253
2.063140115,2.065446099,-1.0645,-0.1616,-0.3157,0.9003,-3.0518,-14.8315
2.065801104,2.06809493,-1.0645,-0.1616,-0.3157,1.1597,-3.6316,-12.0697
2.068445882,2.070740899,-1.0645,-0.1851,-0.2944,1.1597,-3.6316,-12.0697
2.071093043,2.073589047,-1.0491,-0.1851,-0.2944,1.1597,-3.6316,-12.0697
2.073940953,2.076244077,-1.0491,-0.1851,-0.2944,1.1597,-3.6316,-12.0697
2.076594075,2.078891953,-1.0491,-0.1851,-0.2944,0.4578,-3.8147,-12.9242
2.079244098,2.081541022,-1.0491,-0.1851,-0.2944,0.4578,-3.8147,-12.9242
2.081892928,2.084356984,-1.0491,-0.1851,-0.2944,0.4578,-3.8147,-12.9242
2.084720096,2.087141951,-1.0491,-0.1851,-0.2944,0.4578,-3.8147,-12.9242
2.08750101,2.089929065,-1.0491,-0.1851,-0.2944,-0.061,-4.8676,-13.6108
2.090291938,2.092759093,-1.043,-0.1997,-0.2939,-0.061,-4.8676,-13.6108
2.093119105,2.095543107,-1.043,-0.1997,-0.2939,-0.061,-4.8676,-13.6108
2.095905026,2.098322114,-1.043,-0.1997,-0.2939,-0.061,-4.8676,-13.6108
2.098680934,2.101103028,-1.043,-0.1997,-0.2939,-0.0916,-5.6,-14.0228
2.101463994,2.103924951,-1.043,-0.1997,-0.2939,-0.0916,-5.6,-14.0228
2.104284963,2.106704911,-1.043,-0.1997,-0.2939,-0.0916,-5.6,-14.0228
2.107067069,2.109487018,-1.043,-0.1997,-0.2939,-0.0916,-5.6,-15.0452
2.109847983,2.112271985,-1.0527,-0.1958,-0.302,0.5035,-6.897,-15.0452
2.112642011,2.114939889,-1.0527,-0.1958,-0.302,0.5035,-6.897,-15.0452
2.115407905,2.117707929,-1.0527,-0.1958,-0.302,0.5035,-6.897,-15.0452
2.118061026,2.12035509,-1.0527,-0.1958,-0.302,0.5035,-6.897,-16.983
2.12070795,2.123091897,-1.0527,-0.1958,-0.302,1.0986,-8.4686,-16.983
2.123445949,2.125746926,-1.0527,-0.1958,-0.302,1.0986,-8.4686,-16.983
2.126100024,2.128399095,-1.0527,-0.1958,-0.302,1.0986,-8.4686,-16.983
2.128751,2.131046018,-1.1152,-0.1453,-0.3264,1.0986,-8.4686,-20.401
2.13139697,2.133794984,-1.0852,-0.1453,-0.3264,2.8229,-11.0779,-20.401
2.134156903,2.136568984,-1.0852,-0.1453,-0.3264,2.8229,-11.0779,-20.401
2.136928996,2.139496049,-1.0852,-0.1453,-0.3264,2.8229,-11.0779,-20.401
2.139857968,2.142267903,-1.0852,-0.1453,-0.3264,2.8229,-14.9841,-25.4364
2.143031081,2.145458898,-1.0852,-0.1453,-0.3264,4.9591,-13.7177,-25.4364
2.145821055,2.148241004,-1.0852,-0.1453,-0.3264,4.9591,-13.7177,-25.4364
2.14860197,2.151025018,-1.0852,-0.0876,-0.3469,4.9591,-13.7177,-25.4364
2.151385983,2.153818091,-1.1101,-0.0876,-0.3469,6.4545,-16.4642,-31.4484
2.154184064,2.156604012,-1.1101,-0.0876,-0.3469,6.4545,-16.4642,-31.4484
2.156964024,2.15938898,-1.1101,-0.0876,-0.3469,6.4545,-16.4642,-31.4484
2.159749946,2.162167033,-1.1101,-0.0876,-0.3469,6.4545,-16.4642,-31.4484
2.162537059,2.164952954,-1.1101,-0.0876,-0.3469,7.5989,-19.7754,-38.6963
2.165316066,2.167741021,-1.1101,-0.0876,-0.3469,7.5989,-19.7754,-38.6963
2.168101033,2.170522889,-1.1101,-0.0876,-0.3608,7.5989,-19.7754,-38.6963
2.170885047,2.173310002,-1.0833,-0.0513,-0.3608,7.5989,-19.7754,-38.6963
2.173668107,2.175964078,-1.0833,-0.0513,-0.3608,7.4158,-23.0713,-46.2952
2.176321944,2.178617915,-1.0833,-0.0513,-0.3608,7.4158,-23.0713,-46.2952
2.17897292,2.181266984,-1.0833,-0.0513,-0.3608,7.4158,-23.0713,-46.2952
2.181620082,2.183931073,-1.0833,-0.0513,-0.3608,7.4158,-23.0713,-46.2952
2.184286078,2.186581096,-1.0833,-0.0513,-0.3608,6.1493,-26.5656,-53.2532
2.186936101,2.189231118,-1.0833,-0.0513,-0.3608,6.1493,-26.5656,-53.2532
2.189584931,2.191884955,-0.9954,-0.1807,-0.2937,6.1493,-26.5656,-53.2532
2.192240914,2.194627007,-0.9954,-0.1807,-0.2937,6.1493,-26.5656,-53.2532
2.194985112,2.197279891,-0.9954,-0.1807,-0.2937,1.2207,-27.3438,-59.6008
2.197633943,2.19992896,-0.9954,-0.1807,-0.2937,1.2207,-27.3438,-59.6008
2.200283011,2.202675065,-0.9954,-0.1807,-0.2937,1.2207,-27.3438,-59.6008
2.203040084,2.205464085,-0.9954,-0.1807,-0.2937,1.2207,-27.3438,-59.6008
2.205826959,2.208245953,-0.9954,-0.1807,-0.2937,-1.6327,-29.0833,-64.7888
2.208610019,2.211029967,-0.9954,-0.2698,-0.3042,-1.6327,-29.0833,-64.7888
2.211393079,2.213763913,-1.0823,-0.2698,-0.3042,-1.6327,-29.0833,-64.7888
2.214118918,2.216411075,-1.0823,-0.2698,-0.3042,-1.6327,-29.0833,-64.7888
2.21676608,2.219062051,-1.0823,-0.2698,-0.3042,2.6093,-31.1127,-68.0237
2.219417056,2.221713027,-1.0823,-0.2698,-0.3042,2.6093,-31.1127,-68.0237
2.222068032,2.22447606,-1.0823,-0.2698,-0.3042,2.6093,-31.1127,-68.0237
2.224837026,2.227256974,-1.0823,-0.2698,-0.3042,2.6093,-31.1127,-68.0237
2.227620086,2.230044087,-1.0823,-0.2698,-0.3042,7.3242,-31.2653,-69.7479
2.23051711,2.232929906,-1.0745,-0.2034,-0.3293,7.3242,-31.2653,-69.7479
2.233283957,2.235578975,-1.0745,-0.2034,-0.3293,7.3242,-31.2653,-69.7479
2.235933026,2.238223037,-1.0745,-0.2034,-0.3293,7.3242,-31.2653,-69.7479
2.238578042,2.240874013,-1.0745,-0.2034,-0.3293,8.8806,-31.0364,-71.0602
2.241229018,2.243600091,-1.0745,-0.2034,-0.3293,8.8806,-31.0364,-71.0602
2.243961057,2.246384105,-1.0745,-0.2034,-0.3293,8.8806,-31.0364,-71.0602
2.246746978,2.249171933,-1.0745,-0.2034,-0.3293,8.8806,-31.0364,-71.0602
2.249535045,2.251954993,-1.0696,-0.262,-0.3164,6.2103,-31.0059,-73.761
2.252318105,2.254750928,-1.0696,-0.262,-0.3164,6.2103,-31.0059,-73.761
2.255111894,2.257532081,-1.0696,-0.262,-0.3164,6.2103,-31.0059,-73.761
2.257894,2.260493001,-1.0696,-0.262,-0.3164,6.2103,-31.0059,-73.761
2.260856112,2.263544997,-1.0696,-0.262,-0.3164,4.4861,-33.2794,-76.1108
2.26390191,2.266202887,-1.0696,-0.262,-0.3164,4.4861,-33.2794,-76.1108
2.266559085,2.268851956,-1.0696,-0.262,-0.3164,4.4861,-33.2794,-76.1108
2.269206962,2.271496972,-1.0693,-0.3135,-0.2676,4.4861,-33.2794,-76.1108
2.271851977,2.274251899,-1.0693,-0.3135,-0.2676,11.0321,-39.1693,-82.7484
2.274616918,2.277042111,-1.0693,-0.3135,-0.2676,11.0321,-39.1693,-82.7484
2.277405938,2.279828032,-1.0693,-0.3135,-0.2676,11.0321,-39.1693,-82.7484
2.280194959,2.282624921,-1.0693,-0.3135,-0.2676,11.0321,-39.1693,-82.7484
2.282988986,2.285408935,-1.0693,-0.3135,-0.2676,16.9678,-41.6565,-87.0056
2.285773953,2.288192948,-1.0693,-0.3135,-0.2676,16.9678,-41.6565,-87.0056
2.288557013,2.290984115,-1.0693,-0.126,-0.303,16.9678,-41.6565,-87.0056
2.291351994,2.293722114,-0.9033,-0.1792,-0.303,16.9678,-41.6565,-87.0056
2.29407998,2.296380958,-0.9033,-0.1792,-0.303,20.5231,-45.7764,-91.0339
2.296738109,2.299039086,-0.9033,-0.1792,-0.303,20.5231,-45.7764,-91.0339
2.299395999,2.301690062,-0.9033,-0.1792,-0.303,20.5231,-45.7764,-91.0339
2.302046975,2.304353913,-0.9033,-0.1792,-0.303,20.5231,-45.7764,-91.0339
2.304712018,2.307008943,-0.9033,-0.1792,-0.303,18.2953,-49.0265,-95.1996
2.307368955,2.309663972,-0.9033,-0.1792,-0.303,18.2953,-49.0265,-95.1996
2.310019931,2.312313994,-0.1484,0.1924,-0.3162,18.2953,-49.0265,-95.1996
2.31278201,2.315098962,-0.1484,0.1924,-0.3162,18.2953,-49.0265,-95.1996
2.315454921,2.317750892,-0.1484,0.1924,-0.3162,10.0403,-48.996,-97.5342
2.318107089,2.320399007,-0.1484,0.1924,-0.3162,10.0403,-48.996,-97.5342
2.320755919,2.323255023,-0.1484,0.1924,-0.3162,10.0403,-48.996,-97.5342
2.323620042,2.326048097,-0.1484,0.1924,-0.3162,10.0403,-48.996,-97.5342
2.326413115,2.328829965,-0.1484,0.1924,-0.3162,-7.309,-34.5612,-98.6633
2.329193076,2.331613978,-0.5234,-1.3479,0.1973,-7.309,-34.5612,-98.6633
2.331978043,2.334409913,-0.5603,-1.3479,0.1973,-7.309,-34.5612,-98.6633
2.334771117,2.337192019,-0.5603,-1.3479,0.1973,-7.309,-34.5612,-98.6633
2.337554892,2.33997794,-0.5603,-1.3479,0.1973,-20.4468,-18.5699,-104.0649
2.340342959,2.342774114,-0.5603,-1.3479,0.1973,-20.4468,-18.5699,-104.0649
2.34314104,2.345564088,-0.5603,-1.3479,0.1973,-20.4468,-18.5699,-104.0649
2.345926961,2.348348102,-0.5603,-1.3479,0.1973,-20.4468,-18.5699,-104.0649
2.348830899,2.351251086,-0.5603,-0.3398,-0.1863,11.9019,-25.2838,-77.774
2.351618966,2.353979072,-2.0696,-0.3398,-0.1863,11.9019,-25.2838,-77.774
2.354336938,2.356635055,-2.0696,-0.3398,-0.1863,11.9019,-25.2838,-77.774
2.356991013,2.359288892,-2.0696,-0.3398,-0.1863,11.9019,-25.2838,-77.774
2.359646043,2.361938914,-2.0696,-0.3398,-0.1863,42.6483,-31.9977,-66.2842
2.362295112,2.364771089,-2.0696,-0.3398,-0.1863,42.6483,-31.9977,-66.2842
2.365134915,2.367552956,-2.0696,-0.3398,-0.1863,42.6483,-31.9977,-66.2842
2.367917975,2.370341977,-2.0696,-0.3398,-0.1863,42.6483,-31.9977,-66.2842
2.370706996,2.373136958,-1.2307,-0.9307,-0.0801,15.9912,-33.2794,-74.5239
2.373503884,2.375925025,-1.2307,-0.9307,-0.0801,15.9912,-33.2794,-74.5239
2.376290997,2.37894102,-1.2307,-0.9307,-0.0801,15.9912,-33.2794,-74.5239
2.379316052,2.3817391,-1.2307,-0.9307,-0.0801,15.9912,-33.2794,-64.5752
2.382538041,2.384968957,-1.2307,-0.9307,-0.0801,16.5558,-32.196,-64.5752
2.385335883,2.38775607,-1.2307,-0.9307,-0.0801,16.5558,-32.196,-64.5752
2.388122043,2.390541037,-1.2307,-0.9307,-0.0801,16.5558,-32.196,-64.5752
2.390906056,2.393309077,-0.9089,-0.6799,-0.1973,32.1808,-31.8298,-48.7823
2.39366599,2.395960053,-0.9089,-0.6799,-0.1973,33.7372,-31.8298,-48.7823
2.39631792,2.39861103,-0.9089,-0.6799,-0.1973,33.7372,-31.8298,-48.7823
2.398966988,2.401266059,-0.9089,-0.6799,-0.1973,33.7372,-31.8298,-48.7823
2.401622018,2.404016932,-0.9089,-0.6799,-0.1973,33.7372,-31.8298,-42.8009
2.404382905,2.406805953,-0.9089,-0.6799,-0.1973,37.796,-31.5704,-42.8009
2.407170972,2.409593066,-0.9089,-0.6799,-0.1973,37.796,-31.5704,-42.8009
2.409959992,2.41238304,-0.6216,-0.2234,-0.1643,37.796,-31.5704,-42.8009
2.412758073,2.41505905,-0.6216,-0.2234,-0.1643,29.9835,-27.9999,-44.6777
2.415415009,2.41771098,-0.6216,-0.2234,-0.1643,29.9683,-27.9999,-44.6777
2.418065986,2.420361957,-0.6216,-0.2234,-0.1643,29.9683,-27.9999,-44.6777
2.420717915,2.423073968,-0.6216,-0.2234,-0.1643,29.9683,-27.9999,-44.6777
2.423432073,2.425730904,-0.6216,-0.2234,-0.1643,29.9683,-20.1874,-51.0101
2.426087102,2.42838808,-0.6216,-0.2234,-0.1643,28.9764,-21.698,-51.0101
2.428745946,2.431040963,-0.6216,-0.2234,0.1526,28.9764,-21.698,-51.0101
2.431396922,2.433885058,-0.8579,-0.5203,0.1526,28.9764,-21.698,-51.0101
2.434248885,2.436674079,-0.8579,-0.5203,0.1526,28.9764,-9.9792,-54.1077
2.437039098,2.439465007,-0.8579,-0.5203,0.1526,24.2767,-11.3068,-54.1077
2.439830026,2.44224902,-0.8579,-0.5203,0.1526,24.2767,-11.3068,-54.1077
2.442623099,2.44491907,-0.8579,-0.5203,0.1526,24.2767,-11.3068,-54.1077
2.445275983,2.447566947,-0.8579,-0.5203,0.1526,24.2767,-11.3068,-52.8412
2.447925052,2.450215062,-0.8579,-0.5203,0.1526,27.8168,-8.1635,-52.8412
2.450572928,2.452940902,-1.1008,-0.5078,-0.0256,27.8168,-8.1635,-52.8412
2.453305921,2.455729922,-1.1008,-0.5078,-0.0256,27.8168,-8.1635,-52.8412
2.45609208,2.458517989,-1.1008,-0.5078,-0.0256,27.8168,-0.351,-54.0009
2.458882054,2.46130391,-1.1008,-0.5078,-0.0256,26.413,-1.6785,-54.0009
2.461671075,2.464138945,-1.1008,-0.5078,-0.0256,26.413,-1.6785,-54.0009
2.464501103,2.466923913,-1.1008,-0.5078,-0.0256,26.413,-1.6785,-54.0009
2.467391929,2.469818076,-1.1008,-0.5078,-0.0256,27.5879,-0.6561,-53.5278
2.470183095,2.472614964,-1.1531,-0.7468,-0.3608,27.5879,-0.6561,-53.5278
2.472978076,2.475398978,-1.1531,-0.7468,-0.3608,27.5879,-0.6561,-53.5278
2.475760898,2.478186091,-1.1531,-0.7468,-0.3608,27.5879,-0.6561,-53.5278
2.478548011,2.480967959,-1.1531,-0.7468,-0.3608,40.5731,-4.0131,-49.6368
2.481332024,2.483822068,-1.1531,-0.7468,-0.3608,40.5731,-4.0131,-49.6368
2.484177073,2.486470899,-1.1531,-0.7468,-0.3608,40.5731,-4.0131,-49.6368
2.486823996,2.489335021,-1.1531,-0.7468,-0.3608,40.5731,-4.0131,-49.6368
2.489689073,2.491991004,-0.7705,-0.4854,0.0435,48.3704,-7.3547,-46.7224
2.492347917,2.495007953,-0.7705,-0.4854,0.0435,48.3704,-7.3547,-46.7224
2.495373925,2.497785052,-0.7705,-0.4854,0.0435,48.3704,-7.3547,-46.7224
2.498146972,2.500554999,-0.7705,-0.4854,0.0435,48.3704,-7.3547,-46.7224
2.500916919,2.503330907,-0.7705,-0.4854,0.0435,47.1344,-10.788,-46.7072
2.503697118,2.506109914,-0.7705,-0.4854,0.0435,47.1344,-10.788,-46.7072
2.506474933,2.50888296,-0.7705,-0.4854,0.0435,47.1344,-10.788,-46.7072
2.509248933,2.511654099,-0.7705,-0.5107,0.1323,47.1344,-10.788,-46.7072
2.512017926,2.51441594,-0.7808,-0.5107,0.1323,42.0685,-17.746,-46.6766
2.514780005,2.517168006,-0.7808,-0.5107,0.1323,42.0685,-17.746,-46.6766
2.517529925,2.519916972,-0.7808,-0.5107,0.1323,42.0685,-17.746,-46.6766
2.520277938,2.522649964,-0.7808,-0.5107,0.1323,42.0685,-17.746,-46.6766
2.523009023,2.525308093,-0.7808,-0.5107,0.1323,39.1235,-24.9023,-45.3949
2.525665006,2.527966937,-0.7808,-0.5107,0.1323,39.1235,-24.9023,-45.3949
2.528324088,2.530625066,-0.7808,-0.5107,0.1323,39.1235,-24.9023,-45.3949
2.530981978,2.53332611,-1.0098,-0.7451,-0.0132,39.1235,-24.9023,-45.3949
2.533682069,2.535982093,-1.0098,-0.7451,-0.0132,36.377,-21.6217,-41.3818
2.536339959,2.538638076,-1.0098,-0.7451,-0.0132,36.377,-21.6217,-41.3818
2.538995942,2.541290959,-1.0098,-0.7451,-0.0132,36.377,-21.6217,-41.3818
2.54164811,2.544048032,-1.0098,-0.7451,-0.0132,36.377,-21.6217,-41.3818
2.54440709,2.546707114,-1.0098,-0.7451,-0.0132,33.7524,-15.9302,-33.4015
2.54706498,2.549363097,-1.0098,-0.7451,-0.0132,33.7524,-15.9302,-33.4015
2.54972001,2.552015981,-1.1738,-0.8582,0.1184,33.7524,-15.9302,-33.4015
2.552374085,2.554887971,-1.1738,-0.8582,0.1184,33.7524,-15.9302,-33.4015
2.55525299,2.557677945,-1.1738,-0.8582,0.1184,29.4189,-7.2784,-25.1923
2.558041057,2.560465058,-1.1738,-0.8582,0.1184,29.4189,-7.2784,-25.1923
2.560826978,2.563255032,-1.1738,-0.8582,0.1184,29.4189,-7.2784,-25.1923
2.563617906,2.56604,-1.1738,-0.8582,0.1184,29.4189,-7.2784,-25.1923
2.566401919,2.568824967,-1.1738,-0.8582,0.1184,26.8555,2.9449,-14.1754
2.569189032,2.571608981,-1.1738,-0.9832,0.2043,26.8555,2.9449,-14.1754
2.571969947,2.574396094,-1.0305,-0.9531,0.2043,26.8555,2.9449,-14.1754
2.574756106,2.577182015,-1.0305,-0.9531,0.2043,26.8555,2.9449,-14.1754
2.577542981,2.579963883,-1.0305,-0.9531,0.2043,29.6326,16.0522,-2.7466
2.580327948,2.582752904,-1.0305,-0.9531,0.2043,29.6326,16.0522,-2.7466
2.583219966,2.585518083,-1.0305,-0.9531,0.2043,29.6326,16.0522,-2.7466
2.585871896,2.588163098,-1.0305,-0.9531,0.2043,29.6326,16.0522,-2.7466
2.588518104,2.590814074,-1.0305,-0.9531,0.2043,29.541,32.9895,11.8103
2.591170987,2.593575915,-0.9348,-1.0674,0.1987,29.541,32.9895,11.8103
2.59394308,2.596363028,-0.9348,-1.0674,0.1987,29.541,32.9895,11.8103
2.596727094,2.59914895,-0.9348,-1.0674,0.1987,29.541,32.9895,11.8103
2.599511107,2.601933917,-0.9348,-1.0674,0.1987,24.7498,53.2379,29.8615
2.602297982,2.604752978,-0.9348,-1.0674,0.1987,24.7498,53.2379,29.8615
2.60511609,2.607540091,-0.9348,-1.0674,0.1987,24.7498,53.2379,29.8615
2.607903918,2.610381087,-0.9348,-1.0674,0.1987,24.7498,53.2379,29.8615
2.610744914,2.61322399,-0.8167,-1.2434,0.179,16.8152,73.3643,53.9856
2.613599976,2.616033992,-0.8167,-1.2434,0.179,16.8152,73.3643,53.9856
2.616403064,2.618823966,-0.8167,-1.2434,0.179,16.8152,73.3643,53.9856
2.619188985,2.621614894,-0.8167,-1.2434,0.179,16.8152,73.3643,84.137
2.621978959,2.624414882,-0.8167,-1.2434,0.179,12.9547,92.5751,84.137
2.624782046,2.627205094,-0.8167,-1.2434,0.179,12.9547,92.5751,84.137
2.627570113,2.629991015,-0.8167,-1.2434,0.179,12.9547,92.5751,84.137
2.630356034,2.632781943,-0.9807,-1.3225,0.3826,12.9547,112.1063,118.4235
2.633140048,2.635434112,-0.9807,-1.3225,0.3826,8.2703,111.7096,118.4235
2.635791024,2.638085088,-0.9807,-1.3225,0.3826,8.2703,111.7096,118.4235
2.638441047,2.640737971,-0.9807,-1.3225,0.3826,8.2703,111.7096,118.4235
2.641092976,2.6433961,-0.9807,-1.3225,0.3826,8.2703,111.7096,155.1208
2.643751105,2.646050891,-0.9807,-1.3225,0.3826,1.4191,130.3711,155.1208
2.646404942,2.64869996,-0.9807,-1.3225,0.3826,1.4191,130.3711,155.1208
2.649054011,2.651349982,-0.9807,-1.3225,0.4817,1.4191,130.3711,155.1208
2.651705941,2.65405794,-2.156,-1.0854,0.4817,1.4191,130.3711,198.0896
2.654412946,2.656706056,-2.156,-1.0854,0.4817,-5.6763,146.9269,195.8313
2.657058915,2.659357985,-2.156,-1.0854,0.4817,-5.6763,146.9269,195.8313
2.659709891,2.662011107,-2.156,-1.0854,0.4817,-5.6763,146.9269,195.8313
2.662364921,2.664785108,-2.156,-1.0854,0.4817,-5.6763,146.9269,195.8313
2.665138921,2.667436084,-2.156,-1.0854,0.4817,-6.897,154.1901,233.5968
2.667789897,2.670083007,-2.156,-1.0854,0.4817,-6.897,154.1901,233.5968
2.670437058,2.672878941,-4.5129,-0.198,-0.2527,-6.897,154.1901,233.5968
2.673243007,2.675668916,-4.5129,-0.198,-0.2527,-6.897,154.1901,233.5968
2.676031073,2.678447923,-4.5129,-0.198,-0.2527,-14.7705,160.5377,285.614
2.678811988,2.681235989,-4.5129,-0.198,-0.2527,-14.7705,160.5377,285.614
2.681601962,2.683959922,-4.5129,-0.198,-0.2527,-14.7705,160.5377,285.614
2.684316119,2.686613997,-4.5129,-0.198,-0.2527,-14.7705,160.5377,285.614
2.686969956,2.689264974,-4.5129,-0.198,-0.2527,-21.7743,165.2374,357.3608
2.689620932,2.691913089,-4.5129,1.2603,-2.0032,-21.7743,165.2374,357.3608
2.692268094,2.694685897,-6.3506,1.2603,-2.0032,-21.7743,165.2374,357.3608
2.695047101,2.697468003,-6.3506,1.2603,-2.0032,-21.7743,165.2374,357.3608
2.697828969,2.700252017,-6.3506,1.2603,-2.0032,-31.4331,162.2009,390.4266
2.700724086,2.703160962,-6.3506,1.2603,-2.0032,-31.4331,162.2009,390.4266
2.703522881,2.705943068,-6.3506,1.2603,-2.0032,-31.4331,162.2009,390.4266
2.706304988,2.708724936,-6.3506,1.2603,-2.0032,-31.4331,162.2009,273.5138
2.709087094,2.711513003,-6.3506,1.2603,-2.6582,74.6613,156.8146,273.5138
2.711874923,2.714373073,-1.1599,-7.9487,-2.6582,74.6613,156.8146,273.5138
2.714728078,2.717021903,-1.1599,-7.9487,-2.6582,74.6613,156.8146,273.5138
2.7173781,2.719670972,-1.1599,-7.9487,-2.6582,74.6613,156.8146,125.8392
2.720026931,2.722324094,-1.1599,-7.9487,-2.6582,209.2743,21.7133,125.8392
2.722676,2.724976977,-1.1599,-7.9487,-2.6582,209.2743,21.7133,125.8392
2.725331029,2.727627,-1.1599,-7.9487,-2.6582,209.2743,21.7133,125.8392
2.727978906,2.730409106,-1.1599,-7.9487,-2.6582,209.2743,21.7133,180.5267
2.730764111,2.733528098,-1.1577,-0.7349,0.5288,430.7404,52.8259,180.8472
2.733890017,2.736184081,-1.1577,-0.7349,0.5288,430.7404,52.8259,180.8472
2.736541947,2.738840064,-1.1577,-0.7349,0.5288,430.7404,52.8259,180.8472
2.739196977,2.741492947,-1.1577,-0.7349,0.5288,430.7404,52.8259,-40.6342
2.741851052,2.744146069,-1.1577,-0.7349,0.5288,464.8743,-26.6418,-40.6342
2.744502028,2.746797999,-1.1577,-0.7349,0.5288,464.8743,-26.6418,-40.6342
2.747153958,2.749449929,-1.1577,-0.7349,0.5288,464.8743,-26.6418,-40.6342
2.749805888,2.752098044,-1.1577,2.4817,-0.6077,464.8743,-26.6418,-40.6342
2.752454957,2.754751882,-0.9385,2.4817,-0.6077,260.8032,-177.3987,-176.4069
2.75511094,2.757405003,-0.9385,2.4817,-0.6077,260.8032,-177.3987,-176.4069
2.757761916,2.760054072,-0.9385,2.4817,-0.6077,260.8032,-177.3987,-176.4069
2.760409078,2.762774905,-0.9385,2.4817,-0.6077,260.8032,-177.3987,-176.4069
2.763132056,2.765423974,-0.9385,2.4817,-0.6077,87.265,-140.7166,-235.8856
2.765780887,2.76807805,-0.9385,2.4817,-0.6077,87.265,-140.7166,-235.8856
2.768437108,2.770724973,-0.9385,2.4817,-0.6077,87.265,-140.7166,-235.8856
2.771084985,2.773383101,-0.5642,5.1558,-1.0105,87.265,-140.7166,-235.8856
2.77373906,2.776035985,-0.5642,5.1558,-1.0105,-216.2323,-169.9066,-240.036
2.776391944,2.778685054,-0.5642,5.1558,-1.0105,-216.2323,-169.9066,-240.036
2.779040059,2.781331977,-0.5642,5.1558,-1.0105,-216.2323,-169.9066,-240.036
2.781686982,2.784040889,-0.5642,5.1558,-1.0105,-216.2323,-169.9066,-240.036
2.78439804,2.786689004,-0.5642,5.1558,-1.0105,-400.9399,-182.6477,-256.8359
2.787047109,2.78933998,-0.5642,5.1558,-1.0105,-400.9399,-182.6477,-256.8359
2.789698085,2.791990956,-0.5642,1.5903,0.405,-400.9399,-182.6477,-256.8359
2.792346915,2.794779023,-0.6018,1.5903,0.405,-400.9399,-182.6477,-256.8359
2.795135936,2.797430953,-0.6018,1.5903,0.405,-419.8608,-198.7915,-192.7338
2.797788104,2.800080022,-0.6018,1.5903,0.405,-419.8608,-198.7915,-192.7338
2.800435981,2.802796086,-0.6018,1.5903,0.405,-419.8608,-198.7915,-192.7338
2.803163966,2.805590114,-0.6018,1.5903,0.405,-419.8608,-198.7915,-192.7338
2.805956086,2.808377942,-0.6018,1.5903,0.405,-323.5779,-168.2587,-93.5974
2.808742007,2.811167916,-0.6018,1.5903,0.405,-323.5779,-168.2587,-93.5974
2.811531981,2.813965997,1.4019,0.8462,-2.0725,-323.5779,-168.2587,-93.5974
2.814442119,2.816863021,1.4019,0.8462,-2.0725,-323.5779,-168.2587,-93.5974
2.817225894,2.819652041,1.4019,0.8462,-2.0725,-301.6205,-97.1985,-95.5658
2.820014914,2.822438916,1.4019,0.8462,-2.0725,-301.6205,-97.1985,-95.5658
2.822854003,2.825278005,1.4019,0.8462,-2.0725,-301.6205,-97.1985,-95.5658
2.825641116,2.828061065,1.4019,0.8462,-2.0725,-301.6205,-97.1985,-95.5658
2.828423938,2.830848893,1.4019,0.8462,-2.0725,-257.8125,-57.2662,-5.4779
2.831211051,2.833589038,0.7495,0.553,-0.7915,-257.8125,-57.2662,-5.4779
2.83394595,2.836307963,0.7495,0.553,-0.7915,-257.8125,-57.2662,-5.4779
2.836663922,2.838962039,0.7495,0.553,-0.7915,-257.8125,-57.2662,-5.4779
2.839317044,2.841623029,0.7495,0.553,-0.7915,-192.5354,-11.9934,39.6118
2.841978988,2.844294032,0.7495,0.553,-0.7915,-192.5354,-11.9934,39.6118
2.844651898,2.846945962,0.7495,0.553,-0.7915,-192.5354,-11.9934,39.6118
2.847301921,2.849800071,0.7495,0.553,-0.7915,-192.5354,-11.9934,39.6118
2.850160083,2.85246106,0.3745,-0.5657,-0.6135,-144.8975,22.4457,77.5299
2.853659114,2.856084069,0.3191,-0.5657,-0.6135,-144.8975,22.4457,77.5299
2.856450995,2.858868083,0.3191,-0.5657,-0.6135,-144.8975,22.4457,77.5299
2.859234055,2.861654958,0.3191,-0.5657,-0.6135,-144.8975,45.8832,84.9152
2.86202093,2.864458045,0.3191,-0.5657,-0.6135,-73.41,42.9993,84.9152
2.864824017,2.867248973,0.3191,-0.5657,-0.6135,-73.41,42.9993,84.9152
2.867613992,2.870041093,0.3191,-0.5657,-0.6135,-73.41,42.9993,84.9152
2.870408019,2.872838935,-0.7336,-1.4319,0.2207,-73.41,55.1758,74.4781
2.873204907,2.875625094,-0.7336,-1.4319,0.2207,31.2653,55.1758,74.4781
2.875990113,2.878412923,-0.7336,-1.4319,0.2207,31.2653,55.1758,74.4781
2.878777942,2.881195029,-0.7336,-1.4319,0.2207,31.2653,55.1758,74.4781
2.881561002,2.883923015,-0.7336,-1.4319,0.2207,141.1285,51.5442,64.0717
2.884278973,2.886573991,-0.7336,-1.4319,0.2207,141.1285,51.5442,64.0717
2.886930903,2.889231881,-0.7336,-1.4319,0.2207,141.1285,51.5442,64.0717
2.889588078,2.891883096,-0.7336,-1.4319,0.1562,141.1285,51.5442,64.0717
2.892240962,2.894545993,-0.4187,-0.9531,0.1562,141.1285,31.7535,43.457
2.894905051,2.897201022,-0.4187,-0.9531,0.1562,199.2188,31.7535,43.457
2.897561034,2.899862012,-0.4187,-0.9531,0.1562,199.2188,31.7535,43.457
2.900217971,2.902661046,-0.4187,-0.9531,0.1562,199.2188,31.7535,43.457
2.903017959,2.905316075,-0.4187,-0.9531,0.1562,199.2188,8.316,4.3793
2.905668935,2.907962998,-0.4187,-0.9531,0.1562,201.2787,9.3231,4.3793
2.908318004,2.910611113,-0.4187,-0.9531,0.1562,201.2787,9.3231,4.3793
2.910963973,2.913457116,-0.3611,-0.1824,0.0596,201.2787,9.3231,4.3793
2.913819989,2.916243991,-0.3611,-0.1824,0.0596,201.2787,-10.2081,-31.311
2.916609963,2.919031104,-0.3611,-0.1824,0.0596,177.7954,-10.7269,-31.311
2.919399938,2.921819886,-0.3611,-0.1824,0.0596,177.7954,-10.7269,-31.311
2.922187051,2.92462202,-0.3611,-0.1824,0.0596,177.7954,-10.7269,-31.311
2.924986085,2.927406033,-0.3611,-0.1824,0.0596,150.4517,-22.9797,-55.7861
2.927770099,2.930192908,-0.3611,-0.1824,0.0596,151.7029,-22.9797,-55.7861
2.93056198,2.932975015,-0.1982,0.116,-0.0271,151.7029,-22.9797,-55.7861
2.933444938,2.935744008,-0.1982,0.116,-0.0271,151.7029,-22.9797,-55.7861
2.936102113,2.938400945,-0.1982,0.116,-0.0271,132.1716,-22.4762,-61.9965
2.938758096,2.941051921,-0.1982,0.116,-0.0271,129.4708,-22.4762,-61.9965
2.941411933,2.943807086,-0.1982,0.116,-0.0271,129.4708,-22.4762,-61.9965
2.944175919,2.94659706,-0.1982,0.116,-0.0271,129.4708,-22.4762,-61.9965
2.946962079,2.949387988,-0.1982,0.116,-0.0271,116.5161,-15.0909,-54.6112
2.949753961,2.952176055,-0.1982,0.116,-0.0161,116.5161,-15.0909,-54.6112
2.952554902,2.95498391,0.0317,0.3835,-0.0161,116.5161,-15.0909,-54.6112
2.955347976,2.957772931,0.0317,0.3835,-0.0161,116.5161,-15.0909,-54.6112
2.958138904,2.960560044,0.0317,0.3835,-0.0161,108.1543,-6.8512,-42.8009
2.960922917,2.963355025,0.0317,0.3835,-0.0161,108.1543,-6.8512,-42.8009
2.96371909,2.966149053,0.0317,0.3835,-0.0161,108.1543,-6.8512,-42.8009
2.966510972,2.969020089,0.0317,0.3835,-0.0161,108.1543,-6.8512,-42.8009
2.969383916,2.971797904,0.0317,0.3835,-0.0161,107.0709,-0.1526,-28.6407
2.972614011,2.975036105,-0.0139,0.5579,-0.0596,107.0709,-0.1526,-28.6407
2.975402078,2.977827987,-0.0139,0.5579,-0.0596,107.0709,-0.1526,-28.6407
2.978193005,2.980618915,-0.0139,0.5579,-0.0596,107.0709,-0.1526,-28.6407
2.980983933,2.983380994,-0.0139,0.5579,-0.0596,109.6191,4.8218,-11.9629
2.983736953,2.986036023,-0.0139,0.5579,-0.0596,109.6191,4.8218,-11.9629
2.986391028,2.988692006,-0.0139,0.5579,-0.0596,109.6191,4.8218,-11.9629
2.989046058,2.99134489,-0.0139,0.5579,-0.0596,109.6191,4.8218,-11.9629
2.991701087,2.994090041,-0.0715,0.7932,-0.0713,104.0192,8.1635,4.4708
2.994454106,2.996873101,-0.0715,0.7932,-0.0713,104.0192,8.1635,4.4708
2.997235974,2.999659976,-0.0715,0.7932,-0.0713,104.0192,8.1635,4.4708
3.000019988,3.002445897,-0.0715,0.7932,-0.0713,104.0192,8.1635,4.4708
3.002851924,3.005151948,-0.0715,0.7932,-0.0713,85.6781,8.7738,18.2343
3.005510053,3.007806977,-0.0715,0.7932,-0.0713,85.6781,8.7738,18.2343
3.008162936,3.010462006,-0.0715,0.7932,-0.0713,85.6781,8.7738,18.2343
3.010818919,3.01315709,-0.0618,0.7517,-0.0405,85.6781,8.7738,18.2343
3.013514003,3.015811881,-0.0618,0.7517,-0.0405,57.3578,6.7291,27.1759
3.016168078,3.018468102,-0.0618,0.7517,-0.0405,57.3578,6.7291,27.1759
3.018825015,3.021122893,-0.0618,0.7517,-0.0405,57.3578,6.7291,27.1759
3.021477899,3.023867091,-0.0618,0.7517,-0.0405,57.3578,6.7291,27.1759
3.024224004,3.026526889,-0.0618,0.7517,-0.0405,23.3307,2.9907,31.1279
3.026884993,3.029178103,-0.0618,0.7517,-0.0405,23.3307,2.9907,31.1279
3.029535016,3.031830033,-0.0618,0.7517,-0.0405,23.3307,2.9907,31.1279
3.032185992,3.034600934,-0.1016,0.5291,-0.0652,23.3307,2.9907,31.1279
3.034960946,3.03902193,-0.1016,0.5291,-0.0652,-7.5531,-2.7618,32.1808
3.039401015,3.041715106,-0.1016,0.5291,-0.0652,-7.5531,-2.7618,32.1808
3.042075118,3.044374904,-0.1016,0.5291,-0.0652,-7.5531,-2.7618,32.1808
3.044728955,3.047023972,-0.1016,0.5291,-0.0652,-7.5531,-10.5743,30.4108
3.047378978,3.049672088,-0.1016,0.5291,-0.0652,-34.2865,-9.0637,30.4108
3.050162991,3.052453956,-0.1016,0.4666,-0.1106,-34.2865,-9.0637,30.4108
3.052871903,3.055165013,-0.1877,0.4453,-0.1106,-34.2865,-9.0637,30.4108
3.055521926,3.05781289,-0.1877,0.4453,-0.1106,-34.2865,-12.97,25.7263
3.058170995,3.060465058,-0.1877,0.4453,-0.1106,-57.4799,-15.3198,25.7263
3.060821971,3.063173016,-0.1877,0.4453,-0.1106,-57.4799,-15.3198,25.7263
3.063528975,3.065823993,-0.1877,0.4453,-0.1106,-57.4799,-15.3198,25.7263
3.066182097,3.068479022,-0.1877,0.4453,-0.1106,-57.4799,-15.3198,19.7449
3.068839034,3.071126899,-0.1877,0.4453,-0.1106,-79.0405,-22.049,19.7449
3.071485957,3.073837003,-0.2275,0.3164,-0.1907,-79.0405,-22.049,19.7449
3.074196061,3.076492032,-0.2275,0.3164,-0.1907,-79.0405,-22.049,19.7449
3.076849898,3.079144915,-0.2275,0.3164,-0.1907,-79.0405,-22.049,11.9324
3.07950302,3.081797084,-0.2275,0.3164,-0.1907,-97.58,-28.7628,14.6027
3.08215495,3.084556064,-0.2275,0.3164,-0.1907,-97.58,-28.7628,14.6027
3.084916076,3.087209901,-0.2275,0.3164,-0.1907,-97.58,-28.7628,14.6027
3.087569913,3.090141019,-0.2275,0.3164,-0.1907,-97.58,-28.7628,10.6964
3.090501031,3.092925033,-0.2275,0.28,-0.2764,-113.6322,-34.5306,10.1929
3.093301019,3.095607003,-0.1702,0.28,-0.2764,-113.6322,-34.5306,10.1929
3.095967969,3.098259887,-0.1702,0.28,-0.2764,-113.6322,-34.5306,10.1929
3.098618945,3.100913009,-0.1702,0.28,-0.2764,-113.6322,-34.5306,6.2866
3.101272067,3.103568038,-0.1702,0.28,-0.2764,-126.5869,-37.796,6.7596
3.103925904,3.106222114,-0.1702,0.28,-0.2764,-126.5869,-37.796,6.7596
3.106575927,3.108874997,-0.1702,0.28,-0.2764,-126.5869,-37.796,6.7596
3.109230002,3.11152502,-0.1702,0.28,-0.2764,-126.5869,-37.796,6.7596
3.111879071,3.114177903,-0.1296,0.2478,-0.3306,-136.5509,-39.0472,5.661
3.1145341,3.116826972,-0.1296,0.2478,-0.3306,-136.5509,-39.0472,5.661
3.117183885,3.11947008,-0.1296,0.2478,-0.3306,-136.5509,-39.0472,5.661
3.119826993,3.122120103,-0.1296,0.2478,-0.3306,-136.5509,-39.0472,5.661
3.122476062,3.124809941,-0.1296,0.2478,-0.3306,-141.9373,-37.1704,6.0425
3.125164946,3.127462109,-0.1296,0.2478,-0.3306,-141.9373,-37.1704,6.0425
3.127817115,3.13011094,-0.1296,0.2478,-0.3306,-141.9373,-37.1704,6.0425
3.130464991,3.132774075,-0.1296,0.1465,-0.3779,-141.9373,-37.1704,6.0425
3.133130034,3.135426959,-0.0916,0.1465,-0.3779,-141.098,-32.7301,8.8043
3.135786017,3.138077935,-0.0916,0.1465,-0.3779,-141.098,-32.7301,8.8043
3.138436994,3.14073511,-0.0916,0.1465,-0.3779,-141.098,-32.7301,8.8043
3.141092023,3.143533906,-0.0916,0.1465,-0.3779,-141.098,-32.7301,8.8043
3.143891057,3.146184882,-0.0916,0.1465,-0.3779,-132.6599,-28.1982,13.1683
3.146542987,3.14883109,-0.0916,0.1465,-0.3779,-132.6599,-28.1982,13.1683
3.14918991,3.15148302,-0.0916,0.1465,-0.3779,-132.6599,-28.1982,13.1683
3.151839932,3.154303988,-0.1194,0.0635,-0.3848,-132.6599,-28.1982,13.1683
3.154674014,3.157091102,-0.1194,0.0635,-0.3848,-118.5913,-23.468,17.9901
3.157457074,3.159875115,-0.1194,0.0635,-0.3848,-118.5913,-23.468,17.9901
3.160243949,3.162667951,-0.1194,0.0635,-0.3848,-118.5913,-23.468,17.9901
3.163033923,3.165462932,-0.1194,0.0635,-0.3848,-118.5913,-23.468,17.9901
3.165941914,3.168362101,-0.1194,0.0635,-0.3848,-102.1729,-15.6403,23.8953
3.168729028,3.17114993,-0.1194,0.0635,-0.3848,-102.1729,-15.6403,23.8953
3.171514949,3.173947057,-0.1562,-0.0151,-0.4717,-102.1729,-15.6403,23.8953
3.174314937,3.176744899,-0.1562,-0.0151,-0.4717,-102.1729,-15.6403,23.8953
3.177109918,3.179528912,-0.1562,-0.0151,-0.4717,-86.0291,-8.255,27.4963
3.179893931,3.182316979,-0.1562,-0.0151,-0.4717,-86.0291,-8.255,27.4963
3.182692965,3.184991082,-0.1562,-0.0151,-0.4717,-86.0291,-8.255,27.4963
3.185349902,3.187643012,-0.1562,-0.0151,-0.4717,-86.0291,-8.255,27.4963
3.187999925,3.190298995,-0.1562,-0.0151,-0.4717,-65.567,-3.7994,31.9214
3.190654954,3.193000993,-0.1562,-0.0547,-0.4182,-65.567,-3.7994,31.9214
3.193366012,3.195791921,-0.1448,-0.0547,-0.4182,-65.567,-3.7994,31.9214
3.196155032,3.198579034,-0.1448,-0.0547,-0.4182,-65.567,-3.7994,31.9214
3.198944053,3.201367101,-0.1448,-0.0547,-0.4182,-39.5813,4.715,34.4849
3.201733073,3.204168042,-0.1448,-0.0547,-0.4182,-39.5813,4.715,34.4849
3.204530915,3.206956109,-0.1448,-0.0547,-0.4182,-39.5813,4.715,34.4849
3.207318982,3.209953984,-0.1448,-0.0547,-0.4182,-39.5813,4.715,34.4849
3.210319003,3.212736091,-0.1448,-0.0547,-0.3542,-12.3291,12.1307,34.5459
3.213123998,3.215623101,-0.1987,-0.3047,-0.3542,-12.3291,12.1307,34.5459
3.215987882,3.218407115,-0.1987,-0.3047,-0.3542,-12.3291,12.1307,34.5459
3.218773087,3.221198996,-0.1987,-0.3047,-0.3542,-12.3291,12.1307,31.0059
3.221564969,3.224003037,-0.1987,-0.3047,-0.3542,12.085,16.4032,31.0059
3.224368056,3.226789912,-0.1987,-0.3047,-0.3542,12.085,16.4032,31.0059
3.227154931,3.229577025,-0.1987,-0.3047,-0.3542,12.085,16.4032,31.0059
3.229942998,3.232367953,-0.1987,-0.3047,-0.2292,12.085,12.4969,30.3345
3.232741078,3.235041102,-0.4268,-0.1826,-0.2493,40.7104,15.5182,30.3345
3.235398015,3.237698039,-0.4268,-0.1826,-0.2493,40.7104,15.5182,30.3345
3.238053998,3.240359982,-0.4268,-0.1826,-0.2493,40.7104,15.5182,30.3345
3.240716895,3.243019065,-0.4268,-0.1826,-0.2493,40.7104,15.5182,26.3214
3.243377885,3.245680055,-0.4268,-0.1826,-0.2493,80.5969,16.7542,26.3214
3.246040067,3.248340091,-0.4268,-0.1826,-0.2493,80.5969,16.7542,26.3214
3.248697957,3.25100108,-0.4268,-0.1826,-0.2493,80.5969,16.7542,26.3214
3.251358947,3.253705939,-1.5354,-5.248,6.4612,80.5969,16.7542,-23.9258
3.254059037,3.256356915,-1.5354,-5.248,6.4612,170.3644,-43.6096,-23.9258
3.256710967,3.259007892,-1.5354,-5.248,6.4612,170.3644,-43.6096,-23.9258
3.259361943,3.261662921,-1.5354,-5.248,6.4612,170.3644,-43.6096,-23.9258
3.262019118,3.264404019,-1.5354,-5.248,6.4612,170.3644,-43.6096,-352.0508
3.264759025,3.267055949,-1.5354,-5.248,6.4612,-209.6558,-162.5977,-352.829
3.267410001,3.269711932,-1.5354,-5.248,6.4612,-209.6558,-162.5977,-352.829
3.27006503,3.272366008,-1.5354,-5.248,-2.3513,-209.6558,-162.5977,-352.829
3.272746047,3.275239905,-7.3486,1.1191,-2.3511,-209.6558,-162.5977,-352.829
3.27560397,3.278020104,-7.3486,1.1191,-2.3511,-276.5656,-237.915,-324.4476
3.27838107,3.280796012,-7.3486,1.1191,-2.3511,-276.5656,-237.915,-324.4476
3.281278094,3.283695897,-7.3486,1.1191,-2.3511,-276.5656,-237.915,-324.4476
3.284049949,3.28634592,-7.3486,1.1191,-2.3511,-276.5656,-237.915,-11.9476
3.286699017,3.289005002,-7.3486,1.1191,-2.3511,97.5342,-100.9064,-12.2833
3.289359054,3.291660031,-7.3486,1.1191,-2.3511,97.5342,-100.9064,-12.2833
3.292014083,3.29442211,-4.1555,-0.8245,-4.501,97.5342,-100.9064,-12.2833
3.294784984,3.297209939,-4.1555,-0.8245,-4.501,97.5342,-100.9064,-227.1271
3.297574004,3.299998959,-4.1555,-0.8245,-4.501,160.0647,-50.1251,-226.6998
3.300361117,3.302782973,-4.1555,-0.8245,-4.501,160.0647,-50.1251,-226.6998
3.303139886,3.305446109,-4.1555,-0.8245,-4.501,160.0647,-50.1251,-226.6998
3.305799922,3.308099946,-4.1555,-0.8245,-4.501,160.0647,-50.1251,-320.4498
3.308454951,3.310754975,-4.1555,-0.8245,-4.501,-153.4271,-124.4507,-323.0133
3.311110934,3.313410005,-6.2805,-2.2134,0.5137,-153.4271,-124.4507,-323.0133
3.313768109,3.316057881,-6.2861,-2.2134,0.5137,-153.4271,-124.4507,-323.0133
3.316412887,3.318711003,-6.2861,-2.2134,0.5137,-153.4271,-124.4507,-323.0133
3.319066962,3.321365079,-6.2861,-2.2134,0.5137,47.0123,-139.6332,-136.0626
3.321718892,3.32416602,-6.2861,-2.2134,0.5137,47.0123,-139.6332,-136.0626
3.324528893,3.326951941,-6.2861,-2.2134,0.5137,47.0123,-139.6332,-136.0626
3.327315053,3.329735955,-6.2861,-2.2134,0.5137,47.0123,-139.6332,-136.0626
3.33010002,3.332533082,-6.2861,-2.2134,0.5137,112.0148,-135.0861,-77.8656
3.332889995,3.335185965,1.2178,-1.3586,0.447,112.0148,-135.0861,-77.8656
3.335543116,3.337839087,1.2178,-1.3586,0.447,112.0148,-135.0861,-77.8656
3.338195046,3.340598067,1.2178,-1.3586,0.447,112.0148,-135.0861,-77.8656
3.340955933,3.343748053,1.2178,-1.3586,0.447,68.7561,-85.8459,-34.3323
3.344114026,3.346535882,1.2178,-1.3586,0.447,68.7561,-85.8459,-34.3323
3.346898993,3.349317988,1.2178,-1.3586,0.447,68.7561,-85.8459,-34.3323
3.349678954,3.352096042,1.2178,-1.3586,0.447,68.7561,-85.8459,-0.6256
3.352458915,3.354889115,1.2205,0.5522,0.895,7.9956,-31.7688,-0.6256
3.355247935,3.357664069,1.2205,0.5522,0.895,7.9956,-31.7688,-0.6256
3.358022889,3.360441884,1.2205,0.5522,0.895,7.9956,-31.7688,-0.6256
3.360801896,3.363234004,1.2205,0.5522,0.895,7.9956,15.4877,-3.1586
3.363594016,3.366013965,1.2205,0.5522,0.895,37.8113,15.4877,-3.1586
3.36637493,3.368797978,1.2205,0.5522,0.895,37.8113,15.4877,-3.1586
3.369159898,3.371581992,1.2205,0.5522,0.895,37.8113,15.4877,-3.1586
3.371943911,3.374282082,-0.6643,-0.729,0.5911,-75.47,20.05,14.0381
3.374642095,3.37694498,-0.6643,-0.729,0.5911,-76.9043,20.05,14.0381
3.377304038,3.379593095,-0.6643,-0.729,0.5911,-76.9043,20.05,14.0381
3.379950961,3.382240971,-0.6643,-0.729,0.5911,-76.9043,20.05,14.0381
3.382597884,3.384904107,-0.6643,-0.729,0.5911,-76.9043,20.05,32.2266
3.385264119,3.387556991,-0.6643,-0.729,0.5911,-78.5522,20.1263,32.2266
3.387916049,3.390218934,-0.6643,-0.729,0.5911,-78.5522,20.1263,32.2266
3.390577039,3.393044909,-0.6643,-0.729,0.1792,-78.5522,20.1263,32.2266
3.393406114,3.395695886,-1.1396,-1.1438,0.1792,-78.5522,24.0326,63.7817
3.396163901,3.398466071,-1.1396,-1.1438,0.1792,-74.8291,26.7639,63.7817
3.39882203,3.401118955,-1.1396,-1.1438,0.1792,-74.8291,26.7639,63.7817
3.40147396,3.40394493,-1.1396,-1.1438,0.1792,-74.8291,26.7639,63.7817
3.404308995,3.406729897,-1.1396,-1.1438,0.1792,-74.8291,38.4827,85.3271
3.407094916,3.409512004,-1.1396,-1.1438,0.1792,-51.5594,37.5824,85.3271
3.409873923,3.412296018,-1.1396,-1.1438,0.1792,-51.5594,37.5824,85.3271
3.412663897,3.4149551,-1.5291,-0.8591,0.2622,-51.5594,37.5824,85.3271
3.415312013,3.417604884,-1.5291,-0.8591,0.2622,-51.5594,45.3949,96.9238
3.417963942,3.420263013,-1.5291,-0.8591,0.2622,-37.8265,46.3867,96.9238
3.420618972,3.422976931,-1.5291,-0.8591,0.2622,-37.8265,46.3867,96.9238
3.423340997,3.425763091,-1.5291,-0.8591,0.2622,-37.8265,46.3867,96.9238
3.426125964,3.428548058,-1.5291,-0.8591,0.2622,-37.8265,54.1992,103.3325
3.428911885,3.431333026,-1.5291,-0.8591,0.2622,-31.9366,53.3142,103.3325
3.431697091,3.434158048,-1.281,-0.7085,0.2634,-31.9366,53.3142,103.3325
3.434522113,3.436941108,-1.281,-0.7085,0.2634,-31.9366,53.3142,103.3325
3.437305888,3.439722976,-1.281,-0.7085,0.2634,-24.1241,54.7028,102.7679
3.440087994,3.442556104,-1.281,-0.7085,0.2634,-25.7568,54.7028,102.7679
3.442922076,3.445342978,-1.281,-0.7085,0.2634,-25.7568,54.7028,102.7679
3.445707997,3.448125085,-1.281,-0.7085,0.2634,-25.7568,54.7028,102.7679
3.448490104,3.450914105,-1.281,-0.7085,0.2634,-28.8849,56.3049,103.3173
3.451278886,3.453746995,-1.281,-0.5249,0.2227,-28.8849,56.3049,103.3173
3.45411106,3.456537923,-0.5708,-0.5249,0.2227,-28.8849,56.3049,103.3173
3.456903895,3.459473094,-0.5708,-0.5249,0.2227,-28.8849,56.3049,103.3173
3.45984002,3.462254008,-0.5708,-0.5249,0.2227,-31.7535,62.6068,104.4006
3.463017901,3.465321978,-0.5708,-0.5249,0.2227,-31.7535,62.6068,104.4006
3.465683898,3.467980107,-0.5708,-0.5249,0.2227,-31.7535,62.6068,104.4006
3.468338927,3.470639905,-0.5708,-0.5249,0.2227,-31.7535,62.6068,104.4006
3.470997056,3.47338005,-0.5708,-0.6499,0.0435,-29.8615,62.5916,107.3456
3.473748883,3.47616907,-0.9658,-0.6863,0.0435,-29.8615,62.5916,107.3456
3.476535996,3.478956899,-0.9658,-0.6863,0.0435,-29.8615,62.5916,107.3456
3.479325017,3.481744012,-0.9658,-0.6863,0.0435,-29.8615,62.5916,107.3456
3.482113084,3.484539946,-0.9658,-0.6863,0.0435,-23.6969,58.197,109.3292
3.484904012,3.487334927,-0.9658,-0.6863,0.0435,-23.6969,58.197,109.3292
3.487703046,3.490126094,-0.9658,-0.6863,0.0435,-23.6969,58.197,109.3292
3.490491113,3.492934903,-0.9658,-0.6863,0.0435,-23.6969,58.197,109.3292
3.493294915,3.495592078,-1.3218,-0.5815,-0.1125,-14.5569,54.0009,105.6366
3.495948991,3.498244008,-1.3218,-0.5815,-0.1125,-14.5569,54.0009,105.6366
3.498603066,3.500901898,-1.3218,-0.5815,-0.1125,-14.5569,54.0009,105.6366
3.501260957,3.503566941,-1.3218,-0.5815,-0.1125,-14.5569,54.0009,105.6366
3.503925046,3.506220063,-1.3218,-0.5815,-0.1125,-9.7961,45.5322,98.7091
3.506575068,3.5088739,-1.3218,-0.5815,-0.1125,-9.7961,45.5322,98.7091
3.509230098,3.511527022,-1.3218,-0.5815,-0.1125,-9.7961,45.5322,98.7091
3.511882981,3.514243087,-1.2148,-0.0361,-0.3596,-9.7961,45.5322,98.7091
3.514712056,3.517010888,-1.2148,-0.0361,-0.3596,-14.5569,35.2936,90.5609
3.517368039,3.519665917,-1.2148,-0.0361,-0.3596,-14.5569,35.2936,90.5609
3.520023068,3.522323092,-1.2148,-0.0361,-0.3596,-14.5569,35.2936,90.5609
3.522709092,3.525141915,-1.2148,-0.0361,-0.3596,-14.5569,35.2936,90.5609
3.52550908,3.527926883,-1.2148,-0.0361,-0.3596,-30.2734,29.8309,76.9501
3.528293094,3.530715903,-1.2148,-0.0361,-0.3596,-30.2734,29.8309,76.9501
3.531080922,3.533546885,-1.2148,-0.1611,-0.4873,-30.2734,29.8309,76.9501
3.533910951,3.536340913,-0.9431,-0.1287,-0.4873,-30.2734,29.8309,76.9501
3.536708077,3.539118966,-0.9431,-0.1287,-0.4873,-42.5873,27.2064,63.9954
3.539483985,3.541901072,-0.9431,-0.1287,-0.4873,-42.5873,27.2064,63.9954
3.542264899,3.544697007,-0.9431,-0.1287,-0.4873,-42.5873,27.2064,63.9954
3.545062026,3.547481975,-0.9431,-0.1287,-0.4873,-42.5873,27.2064,63.9954
3.547846993,3.550265988,-0.9431,-0.1287,-0.4873,-38.1927,27.5726,55.7251
3.550630053,3.553030929,-0.9431,-0.1287,-0.4248,-38.1927,27.5726,55.7251
3.55338808,3.555683097,-0.9595,-0.3645,-0.429,-38.1927,27.5726,55.7251
3.556039056,3.558340987,-0.9595,-0.3645,-0.429,-38.1927,27.5726,55.7251
3.558700999,3.560996016,-0.9595,-0.3645,-0.429,-23.4833,29.0985,47.1039
3.561356028,3.563821992,-0.9595,-0.3645,-0.429,-23.4833,29.0985,47.1039
3.564187011,3.566610059,-0.9595,-0.3645,-0.429,-23.4833,29.0985,47.1039
3.566975078,3.569397887,-0.9595,-0.3645,-0.429,-23.4833,29.0985,47.1039
3.569762906,3.572184047,-0.9595,-0.3645,-0.429,-10.91,27.4506,36.2549
3.572557887,3.574984988,-0.8997,-0.6816,-0.3049,-10.91,27.4506,36.2549
3.5753481,3.577769002,-0.8997,-0.6816,-0.3049,-10.91,27.4506,36.2549
3.578134021,3.580642899,-0.8997,-0.6816,-0.3049,-10.91,27.4506,20.6299
3.581010064,3.58382698,-0.8997,-0.6816,-0.3049,-3.3722,25.3601,22.5067
3.584191045,3.586616,-0.8997,-0.6816,-0.3049,-3.3722,25.3601,22.5067
3.586979112,3.589395961,-0.8997,-0.6816,-0.3049,-3.3722,25.3601,22.5067
3.589760026,3.592181882,-0.8997,-0.6816,-0.3049,-3.3722,21.1792,7.8888
3.592550954,3.594977101,-0.8721,-0.7815,-0.2847,16.2811,21.1792,7.8888
3.595338067,3.597758016,-0.8721,-0.7815,-0.2847,16.2811,21.1792,7.8888
3.598122081,3.600542029,-0.8721,-0.7815,-0.2847,16.2811,21.1792,7.8888
3.600906094,3.603305062,-0.8721,-0.7815,-0.2847,39.7186,16.1285,-3.1433
3.603660067,3.605955085,-0.8721,-0.7815,-0.2847,41.687,16.1285,-3.1433
3.606308898,3.608603915,-0.8721,-0.7815,-0.2847,41.687,16.1285,-3.1433
3.60895892,3.611251077,-0.8721,-0.7815,-0.2847,41.687,16.1285,-3.1433
3.611606082,3.613920888,-0.8721,-0.4629,-0.2393,41.687,13.9465,-9.9182
3.614278039,3.61657997,-0.7063,-0.4629,-0.2393,68.7256,13.9465,-9.9182
3.616936883,3.619230946,-0.7063,-0.4629,-0.2393,68.7256,13.9465,-9.9182
3.619584998,3.621880015,-0.7063,-0.4629,-0.2393,68.7256,13.9465,-9.9182
3.622234067,3.624536952,-0.7063,-0.4629,-0.2393,68.7256,13.9465,-14.3433
3.62489601,3.627192935,-0.7063,-0.4629,-0.2393,86.3037,11.3525,-14.3433
3.62755104,3.629852017,-0.7063,-0.4629,-0.2393,86.3037,11.3525,-14.3433
3.63020893,3.632665118,-0.7063,-0.4629,-0.2393,86.3037,11.3525,-14.3433
3.633132895,3.635435065,-0.6428,-0.0647,-0.1577,86.3037,11.3525,-18.4021
3.635793885,3.638095101,-0.6428,-0.0647,-0.1577,88.1653,9.552,-18.4021
3.638452968,3.640746077,-0.6428,-0.0647,-0.1577,88.1653,9.552,-18.4021
3.641102036,3.643572053,-0.6428,-0.0647,-0.1577,88.1653,9.552,-18.4021
3.643937072,3.646362027,-0.6428,-0.0647,-0.1577,88.1653,9.552,-20.5383
3.646727046,3.649146041,-0.6428,-0.0647,-0.1577,77.8809,7.7209,-20.5383
3.64951106,3.651931008,-0.6428,-0.0647,-0.1577,77.8809,7.7209,-20.5383
3.652293881,3.654642066,-0.7729,0.1675,-0.1697,77.8809,7.7209,-20.5383
3.654996118,3.657290896,-0.7729,0.1675,-0.1697,77.8809,7.7209,-20.7062
3.657647094,3.659944972,-0.7729,0.1675,-0.1697,60.5774,7.1564,-20.7062
3.660301885,3.662609061,-0.7729,0.1675,-0.1697,60.5774,7.1564,-20.7062
3.662970981,3.665388068,-0.7729,0.1675,-0.1697,60.5774,7.1564,-20.7062
3.665749034,3.668173989,-0.7729,0.1675,-0.1697,60.5774,7.1564,-18.6768
3.668534001,3.670952042,-0.7729,0.1675,-0.1697,45.99,6.5155,-18.6768
3.671314916,3.673752984,-0.7729,0.1675,-0.2666,45.99,6.5155,-18.6768
3.674116095,3.67653509,-0.8787,0.3025,-0.2666,45.99,6.5155,-18.6768
3.67689701,3.679315051,-0.8787,0.3025,-0.2666,45.99,7.5378,-15.3198
3.67967697,3.682103118,-0.8787,0.3025,-0.2666,32.7301,7.5378,-15.3198
3.682467898,3.6848919,-0.8787,0.3025,-0.2666,32.7301,7.5378,-15.3198
3.685254058,3.687674006,-0.8787,0.3025,-0.2666,32.7301,7.5378,-15.3198
3.688035926,3.690460881,-0.8787,0.3025,-0.2666,21.0114,11.1084,-5.4779
3.690823039,3.693247041,-0.8787,0.3025,-0.2666,22.049,11.1084,-5.4779
3.69361206,3.696033915,-0.9595,0.5532,-0.3845,22.049,11.1084,-5.4779
3.696396073,3.698862037,-0.9595,0.5532,-0.3845,22.049,11.1084,-5.4779
3.699232062,3.701652965,-0.9595,0.5532,-0.3845,12.9852,15.0604,7.5073
3.702014884,3.704755982,-0.9595,0.5532,-0.3845,12.9852,15.0604,7.5073
3.705111941,3.707407912,-0.9595,0.5532,-0.3845,12.9852,15.0604,7.5073
3.707761964,3.710062941,-0.9595,0.5532,-0.3845,12.9852,15.0604,7.5073
3.710416993,3.712764939,-0.9595,0.5532,-0.3845,4.1962,19.0735,19.3176
3.713127097,3.715546092,-1.2639,0.416,-0.2751,4.1962,19.0735,19.3176
3.715908011,3.71832796,-1.2639,0.416,-0.2751,4.1962,19.0735,19.3176
3.718687018,3.721110066,-1.2639,0.416,-0.2751,4.1962,19.0735,19.3176
3.721468886,3.723937949,-1.2639,0.416,-0.2751,-6.7291,21.347,18.3868
3.724298915,3.726721009,-1.2639,0.416,-0.2751,-6.7291,21.347,18.3868
3.727081021,3.729505977,-1.2639,0.416,-0.2751,-6.7291,21.347,18.3868
3.729865035,3.732286891,-1.2639,0.416,-0.2751,-6.7291,21.347,18.3868
3.732660016,3.734955033,-1.9648,-0.6028,-0.1011,-17.8833,16.1591,0.4578
3.735314092,3.737611016,-1.9648,-0.6028,-0.1011,-17.8833,16.1591,0.4578
3.737967929,3.740265092,-1.9648,-0.6028,-0.1011,-17.8833,16.1591,0.4578
3.740621051,3.742958983,-1.9648,-0.6028,-0.1011,-17.8833,16.1591,0.4578
3.743315896,3.745604953,-1.9648,-0.6028,-0.1011,-15.0604,1.9073,-13.2751
3.745960912,3.748259982,-1.9648,-0.6028,-0.1011,-15.0604,1.9073,-13.2751
3.74872609,3.751023015,-1.9648,-0.6028,-0.1011,-15.0604,1.9073,-13.2751
3.75137802,3.753845891,-1.9648,-0.6028,-0.3613,-15.0604,1.9073,-13.2751
3.754200896,3.756497106,-1.447,-0.019,-0.3613,-1.5259,-9.201,-9.6588
3.756845912,3.759137114,-1.447,-0.019,-0.3613,-1.5259,-9.201,-9.6588
3.759485921,3.761783084,-1.447,-0.019,-0.3613,-1.5259,-9.201,-9.6588
3.76213189,3.764677009,-1.447,-0.019,-0.3613,-1.5259,-9.201,-9.6588
3.765032014,3.767451962,-1.447,-0.019,-0.3613,7.782,-6.485,-3.8147
3.767806014,3.770229062,-1.447,-0.019,-0.3613,7.782,-6.485,-3.8147
3.770583114,3.773014029,-1.447,-0.019,-0.3613,7.782,-6.485,-3.8147
3.773368081,3.775790891,-0.8967,0.0291,-0.2568,7.782,-6.485,-3.8147
3.776145896,3.778572043,-0.8967,0.0291,-0.2568,2.3804,1.6479,-5.9357
3.778924903,3.781346044,-0.8967,0.0291,-0.2568,2.3804,1.6479,-5.9357
3.781701049,3.784172973,-0.8967,0.0291,-0.2568,2.3804,1.6479,-5.9357
3.784527978,3.786946973,-0.8967,0.0291,-0.2568,2.3804,1.6479,-5.9357
3.787302932,3.78972598,-0.8967,0.0291,-0.2568,-6.3782,4.7455,-8.0414
3.790080985,3.792542895,-0.8967,0.0291,-0.2568,-6.3782,4.7455,-8.0414
3.792900046,3.795319995,-1.0447,-0.6184,-0.1165,-6.3782,4.7455,-8.0414
3.795675,3.798099955,-1.0447,-0.6184,-0.1165,-6.3782,4.7455,-8.0414
3.798455914,3.800878009,-1.0447,-0.6184,-0.1165,-2.1515,3.3417,-3.3569
3.80123206,3.803609094,-1.0447,-0.6184,-0.1165,-2.1515,3.3417,-3.3569
3.803956946,3.806261023,-1.0447,-0.6184,-0.1165,-2.1515,3.3417,-3.3569
3.806606015,3.808897933,-1.0447,-0.6184,-0.1165,-2.1515,3.3417,-3.3569
3.80924507,3.811538896,-1.0447,-0.6184,-0.1165,5.3558,2.2736,0.7172
3.81188794,3.814192971,-1.0447,-0.4602,-0.0825,5.3558,2.2736,0.7172
3.814543923,3.81683608,-0.9817,-0.4602,-0.0825,5.3558,2.2736,0.7172
3.817186078,3.81959196,-0.9817,-0.4602,-0.0825,5.3558,2.2736,0.7172
3.819941958,3.822235068,-0.9817,-0.4602,-0.0825,6.2408,2.9144,2.6245
3.822943887,3.825365981,-0.9817,-0.4602,-0.0825,6.2408,2.9144,2.6245
3.825722894,3.828148087,-0.9817,-0.4602,-0.0825,6.2408,2.9144,2.6245
3.828505,3.830918988,-0.9817,-0.4602,-0.0825,6.2408,2.9144,2.6245
3.831274947,3.833743056,-0.9817,-0.4602,-0.145,0.9918,4.1046,3.4332
3.834098061,3.836522063,-0.9507,-0.3303,-0.1257,0.9918,4.1046,3.4332
3.836877068,3.839293918,-0.9507,-0.3303,-0.1257,0.9918,4.1046,3.4332
3.839648923,3.842076024,-0.9507,-0.3303,-0.1257,0.9918,4.1046,3.4332
3.842430076,3.844860991,-0.9507,-0.3303,-0.1257,-7.5836,5.3406,3.2501
3.845214089,3.847635945,-0.9507,-0.3303,-0.1257,-7.5836,5.3406,3.2501
3.847991904,3.850410899,-0.9507,-0.3303,-0.1257,-7.5836,5.3406,3.2501
3.850763043,3.853166064,-0.9507,-0.3303,-0.1257,-7.5836,5.3406,2.7924
3.853512963,3.855817994,-1.0962,-0.2935,-0.1992,-13.5193,6.3629,2.7924
3.856167993,3.85846301,-1.0962,-0.2935,-0.1992,-13.5193,6.3629,2.7924
3.858813008,3.861107072,-1.0962,-0.2935,-0.1992,-13.5193,6.3629,2.7924
3.861460885,3.863764008,-1.0962,-0.2935,-0.1992,-13.5193,6.3629,2.7924
3.864119014,3.866415938,-1.0962,-0.2935,-0.1992,-15.2435,6.1646,2.5482
3.86687394,3.869169911,-1.0962,-0.2935,-0.1992,-15.2435,6.1646,2.5482
3.869521102,3.871819934,-1.0962,-0.2935,-0.1992,-15.2435,6.1646,2.5482
3.872170886,3.87459608,-1.0962,-0.116,-0.2849,-15.2435,6.1646,2.5482
3.874948939,3.87724801,-1.1301,-0.116,-0.2849,-15.2435,5.7373,1.5411
3.877602061,3.879897078,-1.1301,-0.116,-0.2849,-15.2435,5.7373,1.5411
3.880248984,3.882676085,-1.1301,-0.116,-0.2849,-15.2435,5.7373,1.5411
3.883036097,3.885461053,-1.1301,-0.116,-0.2849,-15.2435,5.7373,1.5411
3.885820111,3.888241013,-1.1301,-0.116,-0.2849,-18.1122,5.722,-2.0294
3.888602933,3.891020974,-1.1301,-0.116,-0.2849,-18.1122,5.722,-2.0294
3.89138194,3.893819055,-1.1301,-0.116,-0.2224,-18.1122,5.722,-2.0294
3.894179067,3.896595916,-1.1074,-0.1282,-0.2483,-18.1122,5.722,-5.9357
3.89695402,3.899374923,-1.1074,-0.1282,-0.2483,-17.6697,5.4626,-4.5319
3.899733981,3.902152022,-1.1074,-0.1282,-0.2483,-17.6697,5.4626,-4.5319
3.902518948,3.904813012,-1.1074,-0.1282,-0.2483,-17.6697,5.4626,-4.5319
3.905163964,3.907458028,-1.1074,-0.1282,-0.2483,-17.6697,5.4626,-4.5319
3.90780898,3.91010209,-1.1074,-0.1282,-0.2483,-17.6849,5.3711,-7.2632
3.910453042,3.91278406,-1.1074,-0.1282,-0.2483,-17.6849,5.3711,-7.2632
3.913144072,3.915570935,-1.0771,-0.2727,-0.2205,-17.6849,5.3711,-7.2632
3.915930947,3.918353042,-1.0771,-0.2727,-0.2205,-17.6849,5.3711,-7.2632
3.918710908,3.921138009,-1.0771,-0.2727,-0.2205,-15.7471,4.6387,-7.7057
3.921497067,3.923958978,-1.0771,-0.2727,-0.2205,-15.7471,4.6387,-7.7057
3.92431899,3.926738938,-1.0771,-0.2727,-0.2205,-15.7471,4.6387,-7.7057
3.927097997,3.929527005,-1.0771,-0.2727,-0.2205,-15.7471,4.6387,-7.431
3.92988511,3.932305058,-1.0771,-0.2727,-0.2205,-11.9324,4.3182,-7.431
3.932675084,3.935097894,-1.0637,-0.3079,-0.1873,-11.9324,4.3182,-7.431
3.935459098,3.937881907,-1.0637,-0.3079,-0.1873,-11.9324,4.3182,-7.431
3.938240966,3.940907916,-1.0637,-0.3079,-0.1873,-11.9324,4.5013,-8.4076
3.941267928,3.943988046,-1.0637,-0.3079,-0.1873,-12.2528,4.5013,-8.4076
3.944352111,3.94677492,-1.0637,-0.3079,-0.1873,-12.2528,4.5013,-8.4076
3.947133979,3.949553927,-1.0637,-0.3079,-0.1873,-12.2528,4.5013,-8.4076
3.949914893,3.952338895,-1.0637,-0.3079,-0.1873,-10.8643,4.2725,-7.9346
3.952707967,3.95500203,-1.0415,-0.2129,-0.2102,-10.8643,4.2725,-7.9346
3.955353936,3.957651099,-1.0415,-0.2129,-0.2102,-10.8643,4.2725,-7.9346
3.958003005,3.960298976,-1.0415,-0.2129,-0.2102,-10.8643,4.2725,-7.9346
3.960650882,3.962996921,-1.0415,-0.2129,-0.2102,-10.8643,4.715,-8.5449
3.963359078,3.965781888,-1.0415,-0.2129,-0.2102,-9.6283,4.715,-8.5449
3.966136893,3.968553027,-1.0415,-0.2129,-0.2102,-9.6283,4.715,-8.5449
3.968908986,3.971332034,-1.0415,-0.2129,-0.2102,-9.6283,4.715,-8.5449
3.971687039,3.974117001,-1.0415,-0.2129,-0.2302,-10.0708,5.6,-9.552
3.974470099,3.97676011,-1.0806,-0.2114,-0.2302,-10.0708,5.6,-9.552
3.977112016,3.97940894,-1.0806,-0.2114,-0.2302,-10.0708,5.6,-9.552
3.979759892,3.982056102,-1.0806,-0.2114,-0.2302,-10.0708,5.6,-9.552
3.9824061,3.984703978,-1.0806,-0.2114,-0.2302,-10.0708,5.7678,-10.5133
3.985167941,3.987468919,-1.0806,-0.2114,-0.2302,-8.3923,5.7678,-10.5133
3.98782297,3.990119895,-1.0806,-0.2114,-0.2302,-8.3923,5.7678,-10.5133
3.990471085,3.99287506,-1.0806,-0.2114,-0.2302,-8.3923,5.7678,-10.5133
3.993227919,3.99552699,-1.0896,-0.2534,-0.2454,-8.3923,5.5542,-12.4817
3.995878896,3.998173913,-1.0896,-0.2534,-0.2454,-8.7891,5.5542,-12.4817
3.998526057,4.000823935,-1.0896,-0.2534,-0.2454,-8.7891,5.5542,-12.4817
4.00117608,4.00361391,-1.0896,-0.2534,-0.2454,-8.7891,5.5542,-12.4817
4.003967008,4.006262978,-1.0896,-0.2534,-0.2454,-8.7891,3.5706,-14.3127
4.006614884,4.0089161,-1.0896,-0.2534,-0.2454,-10.4218,3.5706,-14.3127
4.009269914,4.011567077,-1.0896,-0.2534,-0.2454,-10.4218,3.5706,-14.3127
4.01192089,4.014361104,-1.0896,-0.2534,-0.3086,-10.4218,3.5706,-14.3127
4.014724931,4.017149886,-1.061,-0.2212,-0.3086,-10.4218,3.5706,-17.0441
4.017512044,4.019926986,-1.061,-0.2212,-0.3086,-9.5673,1.5106,-17.0441
4.020286044,4.022755107,-1.061,-0.2212,-0.3086,-9.5673,1.5106,-17.0441
4.023113927,4.025535067,-1.061,-0.2212,-0.3086,-9.5673,1.5106,-17.0441
4.025896033,4.028312882,-1.061,-0.2212,-0.3086,-5.661,-0.5493,-19.043
4.028670987,4.031096896,-1.061,-0.2212,-0.3086,-7.7515,-0.5493,-19.043
4.031455954,4.033879956,-1.061,-0.2212,-0.3086,-7.7515,-0.5493,-19.043
4.034239015,4.036658963,-1.0449,-0.2769,-0.2856,-7.7515,-0.5493,-19.043
4.037018022,4.039438924,-1.0449,-0.2769,-0.2856,-4.1962,-2.4414,-21.1029
4.039797028,4.042220076,-1.0449,-0.2769,-0.2856,-4.1962,-2.4414,-21.1029
4.042586049,4.045016011,-1.0449,-0.2769,-0.2856,-4.1962,-2.4414,-21.1029
4.045374116,4.047790965,-1.0449,-0.2769,-0.2856,-4.1962,-2.4414,-21.1029
4.048148116,4.050569018,-1.0449,-0.2769,-0.2856,-1.6479,-4.2419,-21.7285
4.050924977,4.053318938,-1.0449,-0.2769,-0.2856,-1.6479,-4.2419,-21.7285
4.05366989,4.055959901,-1.0466,-0.3232,-0.2625,-1.6479,-4.2419,-21.7285
4.056311091,4.058726987,-1.0466,-0.3232,-0.2625,-1.6479,-4.2419,-21.7285
4.059096059,4.06140705,-1.0466,-0.3232,-0.2625,2.7618,-5.6152,-21.0571
4.061846932,4.064224919,-1.0466,-0.3232,-0.2625,2.7618,-5.6152,-21.0571
4.06458207,4.067391118,-1.0466,-0.3232,-0.2625,2.7618,-5.6152,-21.0571
4.067750892,4.070169887,-1.0466,-0.3232,-0.2625,2.7618,-5.6152,-21.0571
4.070528945,4.07296296,-1.0466,-0.3232,-0.2625,4.8828,-7.8125,-21.9269
4.073321065,4.075741967,-1.092,-0.333,-0.2568,4.8828,-7.8125,-21.9269
4.076101979,4.078519067,-1.092,-0.333,-0.2568,4.8828,-7.8125,-21.9269
4.078877887,4.081300935,-1.092,-0.333,-0.2568,4.8828,-7.8125,-21.9269
4.081659039,4.084080895,-1.092,-0.333,-0.2568,8.1024,-10.8337,-23.8037
4.084444007,4.086863955,-1.092,-0.333,-0.2568,8.1024,-10.8337,-23.8037
4.087226113,4.089652022,-1.092,-0.333,-0.2568,8.1024,-10.8337,-23.8037
4.090016087,4.09243389,-1.092,-0.333,-0.2568,8.1024,-10.8337,-23.8037
4.092836102,4.095135888,-1.0295,-0.0061,-0.3726,14.0228,-14.2059,-26.5198
4.095494946,4.097789964,-1.0549,-0.0061,-0.3726,14.0228,-14.2059,-26.5198
4.098148068,4.100439986,-1.0549,-0.0061,-0.3726,14.0228,-14.2059,-26.5198
4.100904902,4.103213986,-1.0549,-0.0061,-0.3726,14.0228,-14.2059,-26.5198
4.103573998,4.105874976,-1.0549,-0.0061,-0.3726,15.7623,-15.8997,-33.9355
4.106233081,4.108529052,-1.0549,-0.0061,-0.3726,15.7623,-15.8997,-33.9355
4.108885964,4.111181935,-1.0549,-0.0061,-0.3726,15.7623,-15.8997,-33.9355
4.111540994,4.114021977,-1.0549,-0.0061,-0.3726,15.7623,-15.8997,-33.9355
4.11437889,4.11668106,-1.0852,-0.261,-0.3113,10.3302,-17.0746,-42.7246
4.117037972,4.119333943,-1.0852,-0.261,-0.3113,10.3302,-17.0746,-42.7246
4.119693002,4.121986112,-1.0852,-0.261,-0.3113,10.3302,-17.0746,-42.7246
4.122341117,4.124891004,-1.0852,-0.261,-0.3113,10.3302,-17.0746,-42.7246
4.125256976,4.127678117,-1.0852,-0.261,-0.3113,13.7177,-19.3634,-45.9442
4.128041943,4.130458077,-1.0852,-0.261,-0.3113,13.7177,-19.3634,-45.9442
4.130823096,4.133254966,-1.0852,-0.261,-0.3113,13.7177,-19.3634,-45.9442
4.133619985,4.136039933,-0.9187,-0.1025,-0.2974,13.7177,-19.3634,-45.9442
4.136404952,4.138829907,-0.9187,-0.1025,-0.2974,23.1934,-20.2026,-46.2799
4.139194926,4.141615113,-0.9187,-0.1025,-0.2974,23.1934,-20.2026,-46.2799
4.141982039,4.144412955,-0.9187,-0.1025,-0.2974,23.1934,-20.2026,-46.2799
4.144777974,4.147202929,-0.9187,-0.1025,-0.2974,23.1934,-20.2026,-46.2799
4.147568902,4.149989089,-0.9187,-0.1025,-0.2974,20.6909,-16.4795,-50.2472
4.150355061,4.152774056,-0.9187,-0.1025,-0.2974,20.6909,-16.4795,-50.2472
4.153134068,4.155435046,-1.0278,-0.5786,-0.0774,20.6909,-16.4795,-50.2472
4.155791959,4.158086022,-1.0278,-0.5786,-0.0774,20.6909,-16.4795,-50.2472
4.158441981,4.160745105,-1.0278,-0.5786,-0.0774,19.9585,-15.686,-51.0864
4.161101064,4.163489064,-1.0278,-0.5786,-0.0774,19.9585,-15.686,-51.0864
4.163845977,4.166145047,-1.0278,-0.5786,-0.0774,19.9585,-15.686,-51.0864
4.166504105,4.168803891,-1.0278,-0.5786,-0.0774,19.9585,-15.686,-51.0864
4.169162949,4.17145296,-1.0278,-0.5786,-0.0774,32.1198,-17.1051,-46.2189
4.171808919,4.174267968,-1.0278,-0.5786,-0.0774,32.1198,-17.1051,-46.2189
4.17463108,4.177017888,-1.1064,-0.5466,-0.1526,32.1198,-17.1051,-46.2189
4.177379092,4.179968079,-1.1064,-0.5466,-0.1526,32.1198,-17.1051,-42.3126
4.180335006,4.182753047,-1.1064,-0.5466,-0.1526,48.3704,-18.7073,-42.1143
4.183321914,4.185748061,-1.1064,-0.5466,-0.1526,48.3704,-18.7073,-42.1143
4.186114034,4.188533982,-1.1064,-0.5466,-0.1526,48.3704,-18.7073,-42.1143
4.188899955,4.191323003,-1.1064,-0.5466,-0.1526,48.3704,-18.7073,-42.8925
4.191688022,4.194159945,-1.1064,-0.5466,-0.1526,56.0455,-20.2484,-42.8925
4.194524964,4.19694992,-1.1714,-0.2693,-0.3049,56.0455,-20.2484,-42.8925
4.197312077,4.199732026,-1.1714,-0.2693,-0.3049,56.0455,-20.2484,-42.8925
4.200097999,4.202554902,-1.1714,-0.2693,-0.3049,56.0455,-21.5454,-45.5322
4.202921113,4.205346068,-1.1714,-0.2693,-0.3049,60.0586,-21.5454,-45.5322
4.205708941,4.208133897,-1.1714,-0.2693,-0.3049,60.0586,-21.5454,-45.5322
4.208498916,4.210916957,-1.1714,-0.2693,-0.3049,60.0586,-21.5454,-45.5322
4.211282929,4.21369501,-1.1714,-0.2693,-0.3049,63.1104,-21.3013,-48.996
4.214054068,4.216350993,-1.0664,-0.2844,-0.2837,63.1104,-21.3013,-48.996
4.216706952,4.219006022,-1.0664,-0.2844,-0.2837,63.1104,-21.3013,-48.996
4.219473084,4.221771916,-1.0664,-0.2844,-0.2837,63.1104,-21.3013,-48.996
4.222129067,4.224471053,-1.0664,-0.2844,-0.2837,63.1104,-21.2555,-51.0864
4.224827966,4.227126082,-1.0664,-0.2844,-0.2837,63.0493,-21.2555,-51.0864
4.227481088,4.229781112,-1.0664,-0.2844,-0.2837,63.0493,-21.2555,-51.0864
4.230136117,4.232439002,-1.0664,-0.2844,-0.2837,63.0493,-21.2555,-51.0864
4.232974967,4.235275945,-0.8164,-0.323,-0.125,55.2368,-23.468,-50.4303
4.235634049,4.237931928,-0.8625,-0.323,-0.125,57.1899,-23.468,-50.4303
4.238289079,4.240584096,-0.8625,-0.323,-0.125,57.1899,-23.468,-50.4303
4.240941962,4.243296107,-0.8625,-0.323,-0.125,57.1899,-23.468,-50.4303
4.243660888,4.246083936,-0.8625,-0.323,-0.125,57.1899,-25.238,-49.3774
4.246448955,4.248876056,-0.8625,-0.323,-0.125,50.1099,-25.238,-49.3774
4.249241074,4.251659116,-0.8625,-0.323,-0.125,50.1099,-25.238,-49.3774
4.252025088,4.254363021,-0.8625,-0.323,-0.125,50.1099,-25.238,-49.3774
4.25471898,4.257020911,-0.8606,-0.7122,0.0916,50.1099,-20.4163,-52.4902
4.257379016,4.259674987,-0.8606,-0.7122,0.0916,38.4979,-20.4163,-52.4902
4.260033091,4.262334069,-0.8606,-0.7122,0.0916,38.4979,-20.4163,-52.4902
4.262697896,4.26512309,-0.8606,-0.7122,0.0916,38.4979,-20.4163,-52.4902
4.265490016,4.267910918,-0.8606,-0.7122,0.0916,38.4979,-21.4081,-49.8047
4.268276891,4.270707091,-0.8606,-0.7122,0.0916,34.8206,-21.4081,-49.8047
4.271074017,4.273539027,-0.8606,-0.7122,0.0916,34.8206,-21.4081,-49.8047
4.273905,4.276328048,-1.082,-0.5769,-0.1069,34.8206,-21.4081,-49.8047
4.276694974,4.279124936,-1.082,-0.5769,-0.1069,45.6543,-27.3895,-40.3748
4.279489955,4.281911096,-1.082,-0.5769,-0.1069,45.6543,-27.3895,-40.3748
4.282273969,4.284748992,-1.082,-0.5769,-0.1069,45.6543,-27.3895,-40.3748
4.285113057,4.287536105,-1.082,-0.5769,-0.1069,45.6543,-27.3895,-40.3748
4.287903031,4.290326079,-1.082,-0.5769,-0.1069,50.2319,-30.9143,-38.6505
4.290692052,4.293142041,-1.082,-0.5769,-0.1069,50.2319,-30.9143,-38.6505
4.293499907,4.295798024,-0.9678,-0.2522,-0.2207,50.2319,-30.9143,-38.6505
4.296153983,4.298498115,-0.9678,-0.2522,-0.2207,50.2319,-30.9143,-38.6505
4.298901996,4.30120202,-0.9678,-0.2522,-0.2207,47.6532,-35.2631,-40.9241
4.301562032,4.30435296,-0.9678,-0.2522,-0.2207,47.6532,-35.2631,-40.9241
4.304719886,4.307146033,-0.9678,-0.2522,-0.2207,47.6532,-35.2631,-40.9241
4.307510098,4.309931954,-0.9678,-0.2522,-0.2207,47.6532,-35.2631,-40.9241
4.310299119,4.312735042,-0.9678,-0.2522,-0.2207,41.8854,-33.493,-43.9148
4.31310006,4.315525969,-0.9678,-0.6025,-0.1108,41.8854,-33.493,-43.9148
4.315892896,4.31831499,-1.0647,-0.6025,-0.1108,41.8854,-33.493,-43.9148
4.318680962,4.321105918,-1.0647,-0.6025,-0.1108,41.8854,-33.493,-43.9148
4.32147189,4.323940953,-1.0647,-0.6025,-0.1108,36.7584,-34.7748,-45.4865
4.324304065,4.326724013,-1.0647,-0.6025,-0.1108,36.7584,-34.7748,-45.4865
4.327088078,4.32951208,-1.0647,-0.6025,-0.1108,36.7584,-34.7748,-45.4865
4.329879006,4.332302054,-1.0647,-0.6025,-0.1108,36.7584,-34.7748,-45.4865
4.332674941,4.334972104,-1.0647,-0.6025,-0.2654,38.7726,-41.7786,-38.0096
4.335327109,4.337631902,-0.5261,-0.1797,-0.2654,38.7726,-41.7786,-38.0096
4.338093003,4.340386113,-0.5261,-0.1797,-0.2654,38.7726,-41.7786,-38.0096
4.340743026,4.343044957,-0.5261,-0.1797,-0.2654,38.7726,-41.7786,-38.0096
4.343404015,4.345695933,-0.5261,-0.1797,-0.2654,46.7072,-41.3055,-34.0881
4.346054992,4.348350009,-0.5261,-0.1797,-0.2654,46.7072,-41.3055,-34.0881
4.348706921,4.351016005,-0.5261,-0.1797,-0.2654,46.7072,-41.3055,-34.0881
4.351371964,4.353821,-0.5261,-0.1797,-0.2654,46.7072,-41.3055,-34.0881
4.354179105,4.356476029,-0.9573,-0.7498,0.1335,38.9099,-27.8015,-44.4183
4.356833896,4.359137019,-0.9573,-0.7498,0.1335,38.9099,-27.8015,-44.4183
4.359493932,4.361792048,-0.9573,-0.7498,0.1335,38.9099,-27.8015,-44.4183
4.362148961,4.36469098,-0.9573,-0.7498,0.1335,38.9099,-27.8015,-44.4183
4.365055045,4.367479047,-0.9573,-0.7498,0.1335,33.02,-29.3121,-44.3878
4.367844066,4.370262107,-0.9573,-0.7498,0.1335,33.02,-29.3121,-44.3878
4.370628079,4.373060903,-0.9573,-0.7498,0.1335,33.02,-29.3121,-44.3878
4.373425921,4.375846108,-1.1448,-0.4971,0.0674,33.02,-29.3121,-44.3878
4.376210889,4.378629884,-1.1711,-0.4971,0.0674,36.5906,-37.1246,-33.0963
4.378994903,4.38142105,-1.1711,-0.4971,0.0674,36.5906,-37.1246,-33.0963
4.381787023,4.384221038,-1.1711,-0.4971,0.0674,36.5906,-37.1246,-33.0963
4.384586057,4.387011012,-1.1711,-0.4971,0.0674,36.5906,-37.1246,-33.0963
4.387376031,4.389796933,-1.1711,-0.4971,0.0674,33.5999,-37.7045,-33.1726
4.390161952,4.392593106,-1.1711,-0.4971,0.0674,33.5999,-37.7045,-33.1726
4.392949065,4.39525195,-1.1711,-0.7471,0.135,33.5999,-37.7045,-33.1726
4.395610055,4.397910079,-0.9705,-0.6904,0.135,33.5999,-37.7045,-33.1726
4.398267945,4.400563916,-0.9705,-0.6904,0.135,30.6396,-32.4707,-37.3993
4.400921067,4.403272113,-0.9705,-0.6904,0.135,30.6396,-32.4707,-37.3993
4.403636893,4.406058034,-0.9705,-0.6904,0.135,30.6396,-32.4707,-37.3993
4.406424006,4.408848008,-0.9705,-0.6904,0.135,30.6396,-32.4707,-37.3993
4.409212073,4.411637029,-0.9705,-0.6904,0.135,35.9344,-29.4495,-36.438
4.412003001,4.414437016,-0.9705,-0.6904,0.135,35.9344,-29.4495,-36.438
4.414802035,4.417225083,-1.1262,-0.3928,-0.0789,35.9344,-29.4495,-36.438
4.417587956,4.420210084,-1.1262,-0.3928,-0.0789,35.9344,-29.4495,-33.02
4.420577964,4.422992906,-1.1262,-0.3928,-0.0789,38.1927,-29.3274,-33.02
4.423767051,4.426188907,-1.1262,-0.3928,-0.0789,38.1927,-29.3274,-33.02
4.426552972,4.428970059,-1.1262,-0.3928,-0.0789,38.1927,-29.3274,-33.02
4.429335078,4.431762895,-1.1262,-0.3928,-0.0789,38.6658,-27.0538,-35.3088
4.43212696,4.434562882,-1.1262,-0.3928,-0.0789,38.6658,-27.0538,-35.3088
4.434930047,4.437351903,-0.6143,-0.4299,-0.0081,38.6658,-27.0538,-35.3088
4.437720021,4.440144977,-0.6143,-0.4299,-0.0081,38.6658,-27.0538,-35.3088
4.440511903,4.442922076,-0.6143,-0.4299,-0.0081,33.493,-19.7754,-41.9769
4.443280896,4.445582112,-0.6143,-0.4299,-0.0081,33.493,-19.7754,-41.9769
4.445940932,4.448238095,-0.6143,-0.4299,-0.0081,33.493,-19.7754,-41.9769
4.448598107,4.450888118,-0.6143,-0.4299,-0.0081,33.493,-19.7754,-41.9769
4.451245984,4.453556975,-0.6143,-0.4299,-0.0081,32.2571,-14.1449,-45.5017
4.454023084,4.456324061,-0.8938,-0.4563,0.2537,32.2571,-14.1449,-45.5017
4.456681928,4.458980044,-0.8938,-0.4563,0.2537,32.2571,-14.1449,-45.5017
4.459336957,4.461636981,-0.8938,-0.4563,0.2537,32.2571,-14.1449,-45.5017
4.461995086,4.464298924,-0.8938,-0.4563,0.2537,28.3508,-11.6272,-46.6614
4.464657983,4.466959914,-0.8938,-0.4563,0.2537,29.9225,-11.6272,-46.6614
4.467316111,4.469613036,-0.8938,-0.4563,0.2537,29.9225,-11.6272,-46.6614
4.469967088,4.472267112,-0.8938,-0.4563,0.2537,29.9225,-11.6272,-46.6614
4.472710093,4.475031098,-0.8938,-0.4563,0.1912,29.9225,-11.9476,-47.7448
4.475388011,4.477687081,-1.0945,-0.4951,0.2397,25.1617,-11.9476,-47.7448
4.478044948,4.480337104,-1.0945,-0.4951,0.2397,25.1617,-11.9476,-47.7448
4.480693063,4.483099898,-1.0945,-0.4951,0.2397,25.1617,-11.9476,-47.7448
4.483463963,4.485893926,-1.0945,-0.4951,0.2397,25.1617,-11.0626,-49.1638
4.486257037,4.4886839,-1.0945,-0.4951,0.2397,19.577,-11.0626,-49.1638
4.489047011,4.491465053,-1.0945,-0.4951,0.2397,19.577,-11.0626,-49.1638
4.491829118,4.494172057,-1.0945,-0.4951,0.2397,19.577,-11.0626,-49.1638
4.494528016,4.49682804,-0.9307,-0.6128,0.2048,19.577,-8.0719,-48.9807
4.497183999,4.499475917,-0.9307,-0.6128,0.2048,19.5007,-8.0719,-48.9807
4.499829968,4.502125939,-0.9307,-0.6128,0.2048,19.5007,-8.0719,-48.9807
4.502480945,4.504941901,-0.9307,-0.6128,0.2048,19.5007,-8.0719,-48.9807
4.505305013,4.507714948,-0.9307,-0.6128,0.2048,19.5007,-4.5929,-47.7142
4.508078059,4.510491094,-0.9307,-0.6128,0.2048,27.5726,-4.5929,-47.7142
4.510853013,4.513229093,-0.9307,-0.6128,0.2048,27.5726,-4.5929,-47.7142
4.513585051,4.515881976,-0.9932,-0.5042,0.1775,27.5726,-4.5929,-47.7142
4.516241034,4.518542012,-0.9895,-0.5042,0.1775,27.5726,-4.8218,-49.0265
4.518898925,4.521191081,-0.9895,-0.5042,0.1775,35.5377,-4.8218,-49.0265
4.521544894,4.523982009,-0.9895,-0.5042,0.1775,35.5377,-4.8218,-49.0265
4.524344882,4.52676793,-0.9895,-0.5042,0.1775,35.5377,-4.8218,-49.0265
4.527131995,4.529551944,-0.9895,-0.5042,0.1775,35.5377,-7.1564,-51.8646
4.529916009,4.532339057,-0.9895,-0.5042,0.1775,33.7677,-7.1564,-51.8646
4.532838067,4.535133084,-0.9895,-0.5042,0.1775,33.7677,-7.1564,-51.8646
4.535488089,4.537788114,-0.9456,-0.5669,0.1794,33.7677,-7.1564,-51.8646
4.538156947,4.540704926,-0.9456,-0.5669,0.1794,27.0538,-9.9182,-52.7802
4.541063985,4.543689927,-0.9456,-0.5669,0.1794,27.0538,-9.9182,-52.7802
4.544054946,4.546478948,-0.9456,-0.5669,0.1794,27.0538,-9.9182,-52.7802
4.546842059,4.549263915,-0.9456,-0.5669,0.1794,27.0538,-9.9182,-52.7802
4.54962798,4.552046975,-0.9456,-0.5669,0.1794,15.564,-11.8561,-49.6521
4.552412948,4.554846963,-0.9456,-0.5669,0.1794,15.564,-11.8561,-49.6521
4.555212935,4.557639083,-0.7378,-0.6814,0.2014,15.564,-11.8561,-49.6521
4.558004102,4.560428103,-0.7378,-0.6814,0.2014,15.564,-11.8561,-49.6521
4.560792884,4.563224038,-0.7378,-0.6814,0.2014,7.0953,-9.613,-44.0521
4.563583096,4.566007098,-0.7378,-0.6814,0.2014,7.0953,-9.613,-44.0521
