timestamp_before,timestamp_after,accel_x,accel_y,accel_z,gyro_x,gyro_y,gryo_z
3.0005E-06,0.00524201,-1.0532,-0.1028,-0.3757,0.2899,-1.1597,-0.7782
0.005695006,0.010186096,-1.0515,-0.1106,-0.3684,1.236,-0.9918,-0.1984
0.010553023,0.013985058,-1.0515,-0.1106,-0.3684,1.236,-0.9918,-0.1984
0.014346024,0.016638895,-1.0515,-0.1106,-0.3684,1.236,-0.9918,-0.1984
0.01699104,0.019287964,-1.0515,-0.1106,-0.3684,1.9989,-0.7629,0.5951
0.019640108,0.021939894,-1.0515,-0.1106,-0.3684,1.9989,-0.7629,0.5951
0.022289892,0.024581095,-1.0515,-0.1106,-0.3684,1.9989,-0.7629,0.5951
0.024931093,0.027228018,-1.0664,-0.1003,-0.3628,1.9989,-0.7629,0.5951
0.027577063,0.03023996,-1.0664,-0.1003,-0.3628,2.2278,-0.6104,1.0681
0.030681988,0.035936972,-1.0664,-0.1003,-0.3628,2.2278,-0.6104,1.0681
0.03629007,0.039378067,-1.0664,-0.1003,-0.3628,2.2278,-0.6104,1.0681
0.039739987,0.042174002,-1.0664,-0.1003,-0.3628,2.2736,-0.1373,1.358
0.042529007,0.044822117,-1.0664,-0.1003,-0.3628,2.2736,-0.1373,1.358
0.045174023,0.047464033,-1.0701,-0.0957,-0.3643,2.2736,-0.1373,1.358
0.047811886,0.050106903,-1.0701,-0.0957,-0.3643,2.2736,-0.1373,1.358
0.050455948,0.052801987,-1.0701,-0.0957,-0.3643,1.8616,0.1984,1.5411
0.053152939,0.055445095,-1.0701,-0.0957,-0.3643,1.8616,0.1984,1.5411
0.055792948,0.058086058,-1.0701,-0.0957,-0.3643,1.8616,0.1984,1.5411
0.058435103,0.060727974,-1.0701,-0.0957,-0.3643,1.8616,0.1984,1.5411
0.061077973,0.063448092,-1.0701,-0.0957,-0.3643,1.8463,0.3204,1.4343
0.063796898,0.066085001,-1.0701,-0.0894,-0.3689,1.8463,0.3204,1.4343
0.066433092,0.068725964,-1.071,-0.0894,-0.3689,1.8463,0.3204,1.4343
0.069075962,0.071366926,-1.071,-0.0894,-0.3689,1.8463,0.3204,1.4343
0.071763893,0.074057003,-1.071,-0.0894,-0.3689,2.121,0.7172,1.358
0.074407002,0.076697966,-1.071,-0.0894,-0.3689,2.121,0.7172,1.358
0.077047964,0.079337975,-1.071,-0.0894,-0.3689,2.121,0.7172,1.358
0.079687973,0.082044026,-1.071,-0.0894,-0.3689,2.121,0.7172,1.358
0.082393071,0.084686896,-1.071,-0.0894,-0.3689,2.1362,0.3357,1.1749
0.085036894,0.087330958,-1.0857,-0.0667,-0.3701,2.1362,0.3357,1.1749
0.087680002,0.08997502,-1.0857,-0.0667,-0.3701,2.1362,0.3357,1.1749
0.090325018,0.092759987,-1.0857,-0.0667,-0.3701,2.1362,0.3357,1.1749
0.093109986,0.09540691,-1.0857,-0.0667,-0.3701,2.1362,0.2441,0.6561
0.095758101,0.098046919,-1.0857,-0.0667,-0.3701,1.6327,0.2441,0.6561
0.098395964,0.100690981,-1.0857,-0.0667,-0.3701,1.6327,0.2441,0.6561
0.101041933,0.1034471,-1.0857,-0.0667,-0.3701,1.6327,0.2441,0.6561
0.103797098,0.106088063,-1.0857,-0.0461,-0.3777,1.6327,-0.1221,-0.2441
0.106439968,0.108734032,-1.0688,-0.0461,-0.3777,0.6104,-0.1221,-0.2441
0.109086891,0.111378094,-1.0688,-0.0461,-0.3777,0.6104,-0.1221,-0.2441
0.111786982,0.114076992,-1.0688,-0.0461,-0.3777,0.6104,-0.1221,-0.2441
0.114428898,0.116721054,-1.0688,-0.0461,-0.3777,0.6104,-0.1221,-1.5717
0.11707606,0.119363924,-1.0688,-0.0461,-0.3777,0.0763,-0.4272,-1.5717
0.119713923,0.122057101,-1.0688,-0.0461,-0.3777,0.0763,-0.4272,-1.5717
0.122547051,0.124837061,-1.0688,-0.0461,-0.3777,0.0763,-0.4272,-1.5717
0.12518706,0.127478024,-1.072,-0.0369,-0.3945,0.0763,-0.4272,-3.6774
0.127827069,0.130273958,-1.072,-0.0369,-0.3945,-0.1526,-0.9918,-3.6774
0.130624911,0.132990023,-1.072,-0.0369,-0.3945,-0.1526,-0.9918,-3.6774
0.133340975,0.135631939,-1.072,-0.0369,-0.3945,-0.1526,-0.9918,-3.6774
0.135981938,0.141153952,-1.072,-0.0369,-0.3945,-0.7172,-2.1362,-5.4321
0.141570946,0.143873116,-1.072,-0.0369,-0.3945,-0.7172,-2.1362,-5.4321
0.144220969,0.146510979,-1.072,-0.0405,-0.3923,-0.7172,-2.1362,-5.4321
0.14685907,0.151482006,-1.0659,-0.0405,-0.3923,-0.3052,-2.533,-7.309
0.151836058,0.155135056,-1.0659,-0.0405,-0.3923,-0.3052,-2.533,-7.309
0.155486962,0.158172985,-1.0659,-0.0405,-0.3923,-0.3052,-2.533,-7.309
0.158526083,0.161406895,-1.0659,-0.0405,-0.3923,3.6011,-3.418,-9.201
0.161817929,0.164111038,-1.0659,-0.0405,-0.3923,0.2441,-3.418,-9.201
0.164461037,0.166752001,-1.0581,-0.071,-0.3918,0.2441,-3.418,-9.201
0.167102953,0.169398924,-1.0581,-0.071,-0.3918,0.2441,-3.418,-9.201
0.169750115,0.172078987,-1.0581,-0.071,-0.3918,1.0071,-3.6621,-10.5743
0.172434946,0.174724957,-1.0581,-0.071,-0.3918,1.0071,-3.6621,-10.5743
0.175079962,0.177369019,-1.0581,-0.071,-0.3918,1.0071,-3.6621,-10.5743
0.17772307,0.180015942,-1.0581,-0.071,-0.3918,1.0071,-3.6621,-10.5743
0.180369993,0.18273296,-1.0581,-0.071,-0.3918,1.3733,-3.9062,-11.673
0.183087012,0.185379883,-1.0581,-0.071,-0.3918,1.3733,-3.9062,-11.673
0.185733935,0.188022038,-1.0593,-0.0776,-0.3831,1.3733,-3.9062,-11.673
0.188377043,0.1906661,-1.0593,-0.0776,-0.3831,1.3733,-3.9062,-11.673
0.191019913,0.193349978,-1.0593,-0.0776,-0.3831,1.3733,-4.7455,-12.4207
0.193704983,0.195998093,-1.0593,-0.0776,-0.3831,1.7853,-4.7455,-12.4207
0.196350952,0.198645016,-1.0593,-0.0776,-0.3831,1.7853,-4.7455,-12.4207
0.198998114,0.201290985,-1.0593,-0.0776,-0.3831,1.7853,-4.7455,-12.4207
0.20164003,0.203936955,-1.0593,-0.0776,-0.3831,1.7853,-4.7455,-13.092
0.204291006,0.206587931,-1.0593,-0.1069,-0.374,1.77,-4.9896,-13.092
0.206941029,0.209228894,-1.0583,-0.1069,-0.374,1.77,-4.9896,-13.092
0.209581991,0.211993119,-1.0583,-0.1069,-0.374,1.77,-4.9896,-13.092
0.212346932,0.214640042,-1.0583,-0.1069,-0.374,1.77,-4.9896,-13.2446
0.214992901,0.217284104,-1.0583,-0.1069,-0.374,2.2278,-4.776,-13.2446
0.217637917,0.219933888,-1.0583,-0.1069,-0.374,2.2278,-4.776,-13.2446
0.220286986,0.222655913,-1.0583,-0.1069,-0.374,2.2278,-4.776,-13.2446
0.223009964,0.225299975,-1.0583,-0.1069,-0.374,2.2278,-4.776,-13.2446
0.225653073,0.22794499,-1.053,-0.1326,-0.3694,2.8229,-5.0354,-12.3138
0.228298088,0.230589052,-1.053,-0.1326,-0.3694,2.8229,-5.0354,-12.3138
0.230941912,0.233244082,-1.053,-0.1326,-0.3694,2.8229,-5.0354,-12.3138
0.233595988,0.235887905,-1.053,-0.1326,-0.3694,2.8229,-5.0354,-12.3138
0.236241003,0.23870196,-1.053,-0.1326,-0.3694,3.5858,-4.9591,-11.2305
0.239054104,0.241348883,-1.053,-0.1326,-0.3694,3.5858,-4.9591,-11.2305
0.241701027,0.243995091,-1.053,-0.1326,-0.3694,3.5858,-4.9591,-11.2305
0.244468113,0.246757885,-1.053,-0.1377,-0.3574,3.5858,-4.9591,-11.2305
0.249342104,0.251692911,-1.0396,-0.1377,-0.3574,3.9978,-4.6539,-10.3912
0.252050062,0.254340073,-1.0396,-0.1377,-0.3574,3.9978,-4.6539,-10.3912
0.254695078,0.256992956,-1.0396,-0.1377,-0.3574,3.9978,-4.6539,-10.3912
0.257346054,0.259638926,-1.0396,-0.1377,-0.3574,4.0894,-4.1504,-9.5215
0.259987971,0.262310883,-1.0396,-0.1377,-0.3574,4.0894,-4.1504,-9.5215
0.262663027,0.264952084,-1.0396,-0.1377,-0.3574,4.0894,-4.1504,-9.5215
0.265303036,0.267589947,-1.0471,-0.1433,-0.3599,4.0894,-4.1504,-9.5215
0.267938992,0.270238062,-1.0471,-0.1433,-0.3599,3.7689,-3.8147,-8.1787
0.270585915,0.272879978,-1.0471,-0.1433,-0.3599,3.7689,-3.8147,-8.1787
0.273229023,0.275521895,-1.0471,-0.1433,-0.3599,3.7689,-3.8147,-8.1787
0.275869986,0.278161904,-1.0471,-0.1433,-0.3599,3.7689,-3.8147,-8.1787
0.278509995,0.280798098,-1.0471,-0.1433,-0.3599,3.7689,-3.7079,-7.2937
0.281145951,0.283588072,-1.0471,-0.1433,-0.3599,3.3875,-3.7079,-7.2937
0.283938071,0.286229035,-1.0471,-0.1433,-0.3599,3.3875,-3.7079,-7.2937
0.286575934,0.288864037,-1.052,-0.1453,-0.3423,3.3875,-3.7079,-7.2937
0.289210936,0.29159393,-1.052,-0.1453,-0.3423,3.3875,-3.2349,-6.0883
0.291959902,0.294264933,-1.052,-0.1453,-0.3423,2.8534,-3.2349,-6.0883
0.294613024,0.296902081,-1.052,-0.1453,-0.3423,2.8534,-3.2349,-6.0883
0.297250887,0.299540898,-1.052,-0.1453,-0.3423,2.8534,-3.2349,-6.0883
0.299890896,0.302339932,-1.052,-0.1453,-0.3423,2.8534,-3.0212,-4.9896
0.302688023,0.304979941,-1.052,-0.1453,-0.3423,2.3193,-3.0212,-4.9896
0.305328032,0.307617089,-1.0562,-0.1409,-0.3477,2.3193,-3.0212,-4.9896
0.307963034,0.310248038,-1.0562,-0.1409,-0.3477,2.3193,-3.0212,-4.9896
0.310594937,0.312890908,-1.0562,-0.1409,-0.3477,2.3193,-3.0212,-3.9062
0.313238999,0.315524956,-1.0562,-0.1409,-0.3477,1.7853,-2.2888,-3.9062
0.315874001,0.318159004,-1.0562,-0.1409,-0.3477,1.7853,-2.2888,-3.9062
0.318508049,0.320800921,-1.0562,-0.1409,-0.3477,1.7853,-2.2888,-3.9062
0.321149012,0.32455506,-1.0562,-0.1409,-0.3477,1.7853,-2.2888,-3.2654
0.324936053,0.328042885,-1.0562,-0.1392,-0.355,1.236,-1.5411,-3.2654
0.328420063,0.330845019,-1.0571,-0.1392,-0.355,1.236,-1.5411,-3.2654
0.331200978,0.333577057,-1.0571,-0.1392,-0.355,1.236,-1.5411,-3.2654
0.33392491,0.336327931,-1.0571,-0.1392,-0.355,0.6866,-1.4343,-2.6093
0.336677929,0.338971039,-1.0571,-0.1392,-0.355,0.6866,-1.4343,-2.6093
0.339321991,0.341834923,-1.0571,-0.1392,-0.355,0.6866,-1.4343,-2.6093
0.342183968,0.344478031,-1.0571,-0.1392,-0.355,0.6866,-1.4343,-2.6093
0.34482493,0.34710898,-1.0571,-0.1394,-0.3604,0.9003,-1.1902,-1.5106
0.349614998,0.355274102,-1.0522,-0.1394,-0.3604,0.9003,-1.1902,-1.5106
0.355625054,0.357921025,-1.0522,-0.1394,-0.3604,0.946,-0.8698,-0.9918
0.358271977,0.360562941,-1.0522,-0.1394,-0.3604,0.946,-0.8698,-0.9918
0.360911032,0.36322703,-1.0522,-0.1394,-0.3604,0.946,-0.8698,-0.9918
0.363577029,0.365868946,-1.0522,-0.1394,-0.3604,0.946,-0.8698,-0.9918
0.366218945,0.368502995,-1.0488,-0.1108,-0.373,2.0294,-0.7935,-0.6104
0.369002005,0.371296068,-1.0488,-0.1108,-0.373,2.0294,-0.7935,-0.6104
0.371642968,0.373932978,-1.0488,-0.1108,-0.373,2.0294,-0.7935,-0.6104
0.37428393,0.376573941,-1.0488,-0.1108,-0.373,2.0294,-0.7935,-0.6104
0.376922985,0.379218003,-1.0488,-0.1108,-0.373,2.2278,-1.2207,-0.7477
0.379568001,0.38189592,-1.0488,-0.1108,-0.373,2.2278,-1.2207,-0.7477
0.382248064,0.384536883,-1.0488,-0.1108,-0.373,2.2278,-1.2207,-0.7477
0.384886881,0.387174984,-1.0488,-0.1165,-0.364,2.2278,-1.2207,-0.7477
0.387524983,0.38982,-1.0669,-0.1165,-0.364,2.2278,-1.1444,-0.824
0.390169998,0.39251103,-1.0669,-0.1165,-0.364,1.7548,-1.1444,-0.824
0.392861983,0.395151993,-1.0669,-0.1165,-0.364,1.7548,-1.1444,-0.824
0.395501038,0.397795101,-1.0669,-0.1165,-0.364,1.7548,-1.1444,-0.824
0.3981451,0.400433918,-1.0669,-0.1165,-0.364,1.7548,-1.236,-0.7629
0.400783917,0.40317907,-1.0669,-0.1165,-0.364,1.6022,-1.236,-0.7629
0.403530976,0.405826947,-1.0669,-0.1165,-0.364,1.6022,-1.236,-0.7629
0.406177899,0.408466955,-1.0664,-0.116,-0.366,1.6022,-1.236,-0.7629
0.408817908,0.411114117,-1.0664,-0.116,-0.366,1.6022,-1.236,-0.946
0.411588093,0.41388311,-1.0664,-0.116,-0.366,1.4038,-1.4954,-0.946
0.414231917,0.416520973,-1.0664,-0.116,-0.366,1.4038,-1.4954,-0.946
0.416870972,0.419159075,-1.0664,-0.116,-0.366,1.4038,-1.4954,-0.946
0.419509074,0.421861073,-1.0664,-0.116,-0.366,1.4038,-1.4954,-1.1139
0.422208926,0.42449989,-1.0664,-0.116,-0.366,1.6937,-1.8158,-1.1139
0.424848934,0.427137038,-1.0664,-0.116,-0.3604,1.6937,-1.8158,-1.1139
0.427486082,0.429783007,-1.0515,-0.1223,-0.3604,1.6937,-1.8158,-1.1139
0.430131098,0.432500025,-1.0515,-0.1223,-0.3604,1.6937,-1.8158,-1.1139
0.432848116,0.43513908,-1.0515,-0.1223,-0.3604,1.4954,-1.77,-1.2665
0.435485979,0.437945029,-1.0515,-0.1223,-0.3604,1.4954,-1.77,-1.2665
0.438295027,0.440591952,-1.0515,-0.1223,-0.3604,1.4954,-1.77,-1.2665
0.440940043,0.443325897,-1.0515,-0.1223,-0.3604,1.4954,-1.77,-1.2665
0.443675896,0.446075102,-1.0515,-0.1223,-0.3604,1.4343,-1.8463,-1.2054
0.446425101,0.451079031,-1.051,-0.1235,-0.366,1.4343,-1.8463,-1.2054
0.451470991,0.453769108,-1.051,-0.1235,-0.366,1.4343,-1.8463,-1.2054
0.45412006,0.456500908,-1.051,-0.1235,-0.366,1.5869,-2.0905,-1.7853
0.456849953,0.459143063,-1.051,-0.1235,-0.366,1.5869,-2.0905,-1.7853
0.459492108,0.461788079,-1.051,-0.1235,-0.366,1.5869,-2.0905,-1.7853
0.462135931,0.464426895,-1.051,-0.1235,-0.366,1.5869,-2.0905,-1.7853
0.464774987,0.467096945,-1.051,-0.1235,-0.3716,0.9918,-2.3499,-2.2736
0.467445036,0.469732901,-1.0583,-0.1155,-0.3716,0.9918,-2.3499,-2.2736
0.470081946,0.472448965,-1.0583,-0.1155,-0.3716,0.9918,-2.3499,-2.2736
0.472798964,0.475092074,-1.0583,-0.1155,-0.3716,0.9918,-2.3499,-2.2736
0.475439926,0.477732083,-1.0583,-0.1155,-0.3716,0.351,-2.7313,-2.7161
0.478082081,0.480374953,-1.0583,-0.1155,-0.3716,0.351,-2.7313,-2.7161
0.480723044,0.483038088,-1.0583,-0.1155,-0.3716,0.351,-2.7313,-2.7161
0.483497998,0.485788962,-1.0583,-0.1155,-0.3716,0.351,-2.7313,-2.7161
0.48613896,0.488433024,-1.0715,-0.1125,-0.3616,0.1373,-2.9297,-3.0975
0.488782069,0.491073986,-1.0715,-0.1125,-0.3616,0.1373,-2.9297,-3.0975
0.491589924,0.493883988,-1.0715,-0.1125,-0.3616,0.1373,-2.9297,-3.0975
0.494233033,0.496522089,-1.0715,-0.1125,-0.3616,0.1373,-2.9297,-3.0975
0.496870896,0.499163052,-1.0715,-0.1125,-0.3616,-0.3204,-3.006,-3.0975
0.499512097,0.501979014,-1.0715,-0.1125,-0.3616,-0.3204,-3.006,-3.0975
0.502327105,0.504619023,-1.0715,-0.1125,-0.3616,-0.3204,-3.006,-3.0975
0.504969975,0.507263085,-1.0715,-0.1125,-0.3599,-0.3204,-3.006,-3.0975
0.507611891,0.509904047,-1.0549,-0.1245,-0.3599,0.3357,-2.3499,-2.7466
0.5102519,0.512549063,-1.0549,-0.1245,-0.3599,0.3357,-2.3499,-2.7466
0.512896916,0.515190979,-1.0549,-0.1245,-0.3599,0.3357,-2.3499,-2.7466
0.515540024,0.517829081,-1.0549,-0.1245,-0.3599,0.3357,-2.3499,-2.7466
0.518179079,0.520466944,-1.0549,-0.1245,-0.3599,0.3357,-2.1362,-1.8311
0.520815989,0.523109099,-1.0549,-0.1245,-0.3599,1.4191,-2.1362,-1.8311
0.523459097,0.525746962,-1.0549,-0.1245,-0.3599,1.4191,-2.1362,-1.8311
0.526097914,0.528386017,-1.0664,-0.127,-0.3625,1.4191,-2.1362,-1.8311
0.528731962,0.531021973,-1.0664,-0.127,-0.3625,1.4191,-2.1362,-1.6022
0.53136911,0.533665081,-1.0664,-0.127,-0.3625,0.8392,-2.182,-1.6022
0.534013888,0.53630509,-1.0664,-0.127,-0.3625,0.8392,-2.182,-1.6022
0.536653897,0.538940092,-1.0664,-0.127,-0.3625,0.8392,-2.182,-1.6022
0.539327999,0.54180493,-1.0664,-0.127,-0.3625,0.8392,-2.182,-1.6022
0.542155882,0.544449946,-1.0664,-0.127,-0.3625,-0.5188,-2.5787,-1.709
0.544797083,0.548341891,-1.0664,-0.127,-0.3625,-0.5188,-2.5787,-1.709
0.548696896,0.550986906,-1.0476,-0.1401,-0.3647,-0.5188,-2.5787,-1.709
0.551336905,0.553738972,-1.0476,-0.1401,-0.3647,-0.6561,-2.6093,-0.885
0.554087063,0.556378981,-1.0476,-0.1401,-0.3647,-0.6561,-2.6093,-0.885
0.556728026,0.559012076,-1.0476,-0.1401,-0.3647,-0.6561,-2.6093,-0.885
0.559359928,0.56170096,-1.0476,-0.1401,-0.3647,-0.6561,-2.6093,-0.885
0.562049052,0.564335963,-1.0476,-0.1401,-0.3647,-0.0763,-2.2736,-0.4425
0.564685007,0.566980978,-1.0476,-0.1401,-0.3647,-0.0763,-2.2736,-0.4425
0.567330977,0.569621941,-1.0515,-0.1448,-0.363,-0.0763,-2.2736,-0.4425
0.569971939,0.57226791,-1.0515,-0.1448,-0.363,-0.0763,-2.2736,-0.4425
0.572617909,0.574914118,-1.0515,-0.1448,-0.363,-0.0763,-2.2583,-0.2289
0.575264117,0.577560087,-1.0515,-0.1448,-0.363,0.6561,-2.2583,-0.2289
0.57790794,0.580196043,-1.0515,-0.1448,-0.363,0.6561,-2.2583,-0.2289
0.580543896,0.582881113,-1.0515,-0.1448,-0.363,0.6561,-2.2583,-0.2289
0.58322992,0.58552303,-1.0515,-0.1448,-0.363,0.6561,-2.2583,0.1831
0.585873028,0.588163992,-1.0515,-0.1104,-0.3701,0.351,-2.3499,0.1831
0.588515898,0.590805908,-1.0676,-0.1104,-0.3701,0.351,-2.3499,0.1831
0.591158053,0.593522927,-1.0676,-0.1104,-0.3701,0.351,-2.3499,0.1831
0.593874117,0.596171995,-1.0676,-0.1104,-0.3701,0.351,-2.3499,0.2594
0.596522948,0.598808905,-1.0676,-0.1104,-0.3701,0.1068,-2.2583,0.2594
0.599268099,0.601666113,-1.0676,-0.1104,-0.3701,0.1068,-2.2583,0.2594
0.602028033,0.604339024,-1.0676,-0.1104,-0.3701,0.1068,-2.2583,0.2594
0.604691883,0.606984993,-1.0676,-0.1104,-0.3701,0.1068,-2.2583,-3.6469
0.607334038,0.60962691,-1.0786,-0.0874,-0.3687,-0.2441,-2.7161,-0.4578
0.6099781,0.612275025,-1.0786,-0.0874,-0.3687,-0.2441,-2.7161,-0.4578
0.612623116,0.614909073,-1.0786,-0.0874,-0.3687,-0.2441,-2.7161,-0.4578
0.615259072,0.617557904,-1.0786,-0.0874,-0.3687,-0.2441,-2.7161,-0.4578
0.617909094,0.620197912,-1.0786,-0.0874,-0.3687,-1.6632,-3.0518,-1.5259
0.620547911,0.622875115,-1.0786,-0.0874,-0.3687,-1.6632,-3.0518,-1.5259
0.623223921,0.625521084,-1.0786,-0.0874,-0.3687,-1.6632,-3.0518,-1.5259
0.625867983,0.628158947,-1.0786,-0.1265,-0.3594,-1.6632,-3.0518,-1.5259
0.628504893,0.630803963,-1.0745,-0.1265,-0.3594,-2.0294,-3.0823,-2.1667
0.6311511,0.633449932,-1.0745,-0.1265,-0.3594,-2.0294,-3.0823,-2.1667
0.633798024,0.636089941,-1.0745,-0.1265,-0.3594,-2.0294,-3.0823,-2.1667
0.636438032,0.638735911,-1.0745,-0.1265,-0.3594,-2.0294,-3.0823,-2.1667
0.639084002,0.641374012,-1.0745,-0.1265,-0.3594,-1.4191,-2.9449,-2.1667
0.641802927,0.644098898,-1.0745,-0.1265,-0.3594,-1.4191,-2.9449,-2.1667
0.644446989,0.646797081,-1.0745,-0.1265,-0.3594,-1.4191,-2.9449,-2.1667
0.647143027,0.649434944,-1.0581,-0.1357,-0.3599,-1.4191,-2.9449,-2.1667
0.649783036,0.652140042,-1.0581,-0.1357,-0.3599,-0.5951,-2.7008,-1.4954
0.652487894,0.654777905,-1.0581,-0.1357,-0.3599,-0.5951,-2.7008,-1.4954
0.655125996,0.657462975,-1.0581,-0.1357,-0.3599,-0.5951,-2.7008,-1.4954
0.657899042,0.660188099,-1.0581,-0.1357,-0.3599,-0.5951,-2.7008,-1.4954
0.660538098,0.664116045,-1.0581,-0.1357,-0.3599,0.1373,-2.3193,-1.0071
0.66446509,0.666756054,-1.0581,-0.1357,-0.3599,0.1373,-2.3193,-1.0071
0.667103907,0.669391056,-1.0532,-0.1272,-0.3618,0.1373,-2.3193,-1.0071
0.669741055,0.672080895,-1.0532,-0.1272,-0.3618,0.1373,-2.3193,-1.0071
0.672428032,0.674718996,-1.0532,-0.1272,-0.3618,0.473,-2.533,-1.297
0.675065895,0.677358052,-1.0532,-0.1272,-0.3618,0.473,-2.533,-1.297
0.677707096,0.679995915,-1.0532,-0.1272,-0.3618,0.473,-2.533,-1.297
0.680344006,0.68265905,-1.0532,-0.1272,-0.3618,0.473,-2.533,-1.297
0.683005949,0.68529596,-1.0532,-0.1272,-0.3618,0.1373,-2.5635,-1.3123
0.685645005,0.687935015,-1.0532,-0.1272,-0.3618,0.1373,-2.5635,-1.3123
0.688285013,0.690575978,-1.0542,-0.1064,-0.3623,0.1373,-2.5635,-1.3123
0.690924069,0.693255087,-1.0542,-0.1064,-0.3623,0.1373,-2.5635,-1.3123
0.693603894,0.695895096,-1.0542,-0.1064,-0.3623,0.1068,-2.2888,-1.3123
0.696246048,0.698533913,-1.0542,-0.1064,-0.3623,0.1068,-2.2888,-1.3123
0.698882958,0.701176068,-1.0542,-0.1064,-0.3623,0.1068,-2.2888,-1.3123
0.70152392,0.703813931,-1.0542,-0.1064,-0.3623,0.1068,-2.2888,-1.3123
0.704163929,0.706456085,-1.0542,-0.1064,-0.3623,-0.3967,-2.9907,-1.709
0.706806084,0.709096094,-1.0684,-0.1111,-0.3662,-0.3967,-2.9907,-1.709
0.709446093,0.711832901,-1.0684,-0.1111,-0.3662,-0.3967,-2.9907,-1.709
0.7121829,0.714480063,-1.0684,-0.1111,-0.3662,-0.3967,-2.9907,-1.709
0.714938065,0.71722593,-1.0684,-0.1111,-0.3662,-0.5493,-3.0823,-2.243
0.717574974,0.719864031,-1.0684,-0.1111,-0.3662,-0.5493,-3.0823,-2.243
0.720213076,0.722648999,-1.0684,-0.1111,-0.3662,-0.5493,-3.0823,-2.243
0.722999951,0.725289961,-1.0684,-0.1111,-0.3662,-0.5493,-3.0823,-2.243
0.72563996,0.727923056,-1.0684,-0.1111,-0.3662,-0.0153,-2.8076,-1.9684
0.728274008,0.730564019,-1.061,-0.1179,-0.3567,-0.0153,-2.8076,-1.9684
0.730914017,0.733261963,-1.061,-0.1179,-0.3567,-0.0153,-2.8076,-1.9684
0.733612915,0.735910078,-1.061,-0.1179,-0.3567,-0.0153,-2.8076,-1.9684
0.736258885,0.738553902,-1.061,-0.1179,-0.3567,3.891,-2.6093,-2.1667
0.738902947,0.74119701,-1.061,-0.1179,-0.3567,0.2289,-2.6093,-2.1667
0.741550108,0.743842026,-1.061,-0.1179,-0.3567,0.2289,-2.6093,-2.1667
0.744191071,0.746571919,-1.061,-0.1179,-0.3567,0.2289,-2.6093,-2.1667
0.746920964,0.749210974,-1.0667,-0.1194,-0.3525,0.2289,-2.6093,-2.3651
0.749560019,0.752086064,-1.0667,-0.1194,-0.3525,0.412,-2.6245,-2.3651
0.752436062,0.754722019,-1.0667,-0.1194,-0.3525,0.412,-2.6245,-2.3651
0.755070111,0.759359976,-1.0667,-0.1194,-0.3525,0.412,-2.6245,-2.3651
0.759715935,0.762062928,-1.0667,-0.1194,-0.3525,0.8698,-2.655,-2.0142
0.762416025,0.764707943,-1.0667,-0.1194,-0.3525,0.8698,-2.655,-2.0142
0.765056988,0.767345091,-1.0667,-0.1194,-0.3525,0.8698,-2.655,-2.0142
0.76769509,0.769983908,-1.0625,-0.1211,-0.3547,0.8698,-2.655,-2.0142
0.770333906,0.772663971,-1.0625,-0.1211,-0.3547,0.6256,-2.5635,-2.5482
0.773013016,0.775302073,-1.0625,-0.1211,-0.3547,0.6256,-2.5635,-2.5482
0.775649926,0.777943035,-1.0625,-0.1211,-0.3547,0.6256,-2.5635,-2.5482
0.778293988,0.780593058,-1.0625,-0.1211,-0.3547,0.6256,-2.5635,-2.5482
0.780943056,0.78324308,-1.0625,-0.1211,-0.3547,0.351,-2.9144,-3.006
0.783591887,0.785884997,-1.0625,-0.1211,-0.3547,0.351,-2.9144,-3.006
0.786234041,0.788523098,-1.0625,-0.1211,-0.3628,0.351,-2.9144,-3.006
0.788873097,0.791166922,-1.062,-0.1201,-0.3628,0.351,-2.9144,-3.006
0.79151692,0.793812891,-1.062,-0.1201,-0.3628,0.5341,-2.9907,-2.9297
0.794161936,0.7964529,-1.062,-0.1201,-0.3628,0.5341,-2.9907,-2.9297
0.796802899,0.799092909,-1.062,-0.1201,-0.3628,0.5341,-2.9907,-2.9297
0.7994441,0.801818033,-1.062,-0.1201,-0.3628,0.5341,-2.9907,-2.9297
0.802168032,0.804463049,-1.062,-0.1201,-0.3628,0.6866,-2.8381,-2.9755
0.804812094,0.807107111,-1.062,-0.1201,-0.3628,0.6866,-2.8381,-2.9755
0.807455918,0.809746882,-1.0581,-0.1211,-0.3518,0.6866,-2.8381,-2.9755
0.810095927,0.812534949,-1.0581,-0.1211,-0.3518,0.6866,-2.8381,-2.9755
0.812884947,0.815179964,-1.0581,-0.1211,-0.3518,1.0986,-2.8992,-3.4485
0.815529963,0.817820927,-1.0581,-0.1211,-0.3518,1.0986,-2.8992,-3.4485
0.818170925,0.82046189,-1.0581,-0.1211,-0.3518,1.0986,-2.8992,-3.4485
0.820810934,0.823115965,-1.0581,-0.1211,-0.3518,1.0986,-2.8992,-3.4485
0.823464056,0.825755974,-1.0581,-0.1211,-0.3518,1.0986,-2.6855,-3.0518
0.826104065,0.828396937,-1.0581,-0.1211,-0.3518,1.0681,-2.6855,-3.0518
0.828862091,0.831159016,-1.0608,-0.1228,-0.3538,1.0681,-2.6855,-3.0518
0.831536909,0.833825966,-1.0608,-0.1228,-0.3538,1.0681,-2.6855,-3.0518
0.834175965,0.836469075,-1.0608,-0.1228,-0.3538,1.0681,-2.6855,-3.3569
0.836816927,0.839110037,-1.0608,-0.1228,-0.3538,1.2665,-2.8381,-3.3569
0.83945789,0.841752907,-1.0608,-0.1228,-0.3538,1.2665,-2.8381,-3.3569
0.842101952,0.844401976,-1.0608,-0.1228,-0.3538,1.2665,-2.8381,-3.3569
0.844751974,0.847141882,-1.0608,-0.1228,-0.3538,1.2665,-2.8381,-3.4027
0.847490927,0.849780937,-1.0618,-0.136,-0.3459,1.0529,-2.8229,-3.4027
0.850128075,0.852618119,-1.0618,-0.136,-0.3459,1.0529,-2.8229,-3.4027
0.852966925,0.855255028,-1.0618,-0.136,-0.3459,1.0529,-2.8229,-3.4027
0.855601927,0.861545941,-1.0618,-0.136,-0.3459,1.0529,-2.7466,-3.1433
0.861896893,0.864188095,-1.0618,-0.136,-0.3459,0.7782,-2.7466,-3.1433
0.864538094,0.86775293,-1.0618,-0.136,-0.3459,0.7782,-2.7466,-3.1433
0.868105074,0.870401999,-1.063,-0.1401,-0.3542,0.946,-2.3499,-2.8534
0.87075009,0.873197933,-1.063,-0.1401,-0.3542,0.946,-2.3499,-2.8534
0.873546025,0.875830075,-1.063,-0.1401,-0.3542,0.946,-2.3499,-2.8534
0.87617602,0.878471991,-1.063,-0.1401,-0.3542,0.946,-2.3499,-2.8534
0.87881889,0.881106039,-1.063,-0.1401,-0.3542,1.0376,-2.3193,-2.533
0.881484886,0.883783003,-1.063,-0.1401,-0.3542,1.0376,-2.3193,-2.533
0.884131094,0.886422058,-1.063,-0.1401,-0.3542,1.0376,-2.3193,-2.533
0.886768957,0.889054915,-1.063,-0.1401,-0.3503,1.0376,-2.3193,-2.533
0.889403006,0.89169993,-1.0586,-0.1279,-0.3503,1.2207,-1.8768,-2.2888
0.892047068,0.894337078,-1.0586,-0.1279,-0.3503,1.2207,-1.8768,-2.2888
0.894683977,0.896975895,-1.0586,-0.1279,-0.3503,1.2207,-1.8768,-2.2888
0.897323033,0.89961805,-1.0586,-0.1279,-0.3503,1.2207,-1.8768,-2.2888
0.899964949,0.902332922,-1.0586,-0.1279,-0.3503,0.4883,-1.6022,-2.4414
0.90268006,0.904975077,-1.0586,-0.1279,-0.3503,0.4883,-1.6022,-2.4414
0.905325075,0.907610079,-1.0586,-0.1279,-0.3503,0.4883,-1.6022,-2.4414
0.907958885,0.910247942,-1.0608,-0.1267,-0.3503,0.4883,-1.6022,-2.4414
0.910596033,0.912981888,-1.0608,-0.1267,-0.3503,0.4883,-1.77,-2.4872
0.913331887,0.915621897,-1.0608,-0.1267,-0.3503,0.2289,-1.77,-2.4872
0.915970942,0.918261906,-1.0608,-0.1267,-0.3503,0.2289,-1.77,-2.4872
0.918609043,0.920905014,-1.0608,-0.1267,-0.3503,0.2289,-1.77,-2.4872
0.921251913,0.923685929,-1.0608,-0.1267,-0.3503,0.2289,-1.77,-2.3651
0.924037119,0.92633309,-1.0608,-0.1267,-0.3503,-0.3815,-1.7853,-2.3651
0.926680943,0.92897,-1.0608,-0.1267,-0.353,-0.3815,-1.7853,-2.3651
0.929318091,0.93165197,-1.0596,-0.1389,-0.353,-0.3815,-1.7853,-2.3651
0.932000061,0.934293886,-1.0596,-0.1389,-0.353,-0.3815,-1.7853,-2.1362
0.934641978,0.936930081,-1.0596,-0.1389,-0.353,0.061,-1.7242,-2.1362
0.937280079,0.939571997,-1.0596,-0.1389,-0.353,0.061,-1.7242,-2.1362
0.939923903,0.94231095,-1.0596,-0.1389,-0.353,0.061,-1.7242,-2.1362
0.942659994,0.944948098,-1.0596,-0.1389,-0.353,0.061,-1.7242,-2.1362
0.945298096,0.94758906,-1.0596,-0.1389,-0.353,0.1526,-1.8768,-2.0294
0.94804897,0.950437924,-1.0593,-0.1338,-0.3555,0.1526,-1.8768,-2.0294
0.950786969,0.953213116,-1.0593,-0.1338,-0.3555,0.1526,-1.8768,-2.0294
0.953563114,0.955855986,-1.0593,-0.1338,-0.3555,0.1526,-1.8768,-2.0294
0.956205984,0.961001059,-1.0593,-0.1338,-0.3555,0.3815,-1.7242,-1.7853
0.961758038,0.964610001,-1.0593,-0.1338,-0.3555,0.3815,-1.7242,-1.7853
0.964969059,0.96727409,-1.0593,-0.1338,-0.3555,0.3815,-1.7242,-1.4343
0.96762695,0.969911953,-1.1218,-0.137,-0.3535,0.4578,-1.8005,-1.4343
0.970261952,0.972599884,-1.063,-0.137,-0.3535,0.4578,-1.8005,-1.4343
0.972947022,0.975241085,-1.063,-0.137,-0.3535,0.4578,-1.8005,-1.4343
0.975587984,0.977878948,-1.063,-0.137,-0.3535,0.4578,-1.8005,-1.4954
0.97822704,0.980516096,-1.063,-0.137,-0.3535,-0.2136,-1.8921,-1.4954
0.980862995,0.983255049,-1.063,-0.137,-0.3535,-0.2136,-1.8921,-1.4954
0.983601948,0.985891959,-1.063,-0.137,-0.3535,-0.2136,-1.8921,-1.4954
0.986242911,0.988531967,-1.063,-0.137,-0.3535,-0.2136,-1.8921,-1.4954
0.988880059,0.991166016,-1.0518,-0.1335,-0.3516,0.2594,-1.8005,-1.7548
0.991490027,0.993780991,-1.0518,-0.1335,-0.3516,0.2594,-1.8005,-1.7548
0.99412789,0.996421,-1.0518,-0.1335,-0.3516,0.2594,-1.8005,-1.7548
0.996769091,0.999055048,-1.0518,-0.1335,-0.3516,0.2594,-1.8005,-1.7548
0.999401947,1.001711031,-1.0518,-0.1335,-0.3516,0.6104,-1.6479,-1.1902
1.00205793,1.004353901,-1.0518,-0.1335,-0.3516,0.6104,-1.6479,-1.1902
1.004701992,1.00699391,-1.0518,-0.1335,-0.3516,0.6104,-1.6479,-1.1902
1.007341048,1.009640118,-1.0518,-0.071,-0.3533,0.6104,-1.6479,-1.1902
1.009987971,1.012438914,-1.0654,-0.1235,-0.3533,0.3357,-1.8921,-1.3123
1.012787958,1.015076062,-1.0654,-0.1235,-0.3533,0.3357,-1.8921,-1.3123
1.015422961,1.017719885,-1.0654,-0.1235,-0.3533,0.3357,-1.8921,-1.3123
1.018067976,1.020353934,-1.0654,-0.1235,-0.3533,0.3357,-1.8921,-1.3123
1.020702025,1.023244997,-1.0654,-0.1235,-0.3533,0.946,-2.0142,-1.5717
1.023599049,1.026022097,-1.0654,-0.1235,-0.3533,0.946,-2.0142,-1.5717
1.026378056,1.028798958,-1.0654,-0.1235,-0.3533,0.946,-2.0142,-1.5717
1.029154917,1.031587025,-1.062,-0.1335,-0.3489,0.946,-2.0142,-1.5717
1.031941077,1.034361979,-1.062,-0.1335,-0.3489,0.885,-1.6785,-1.6785
1.034716984,1.037131926,-1.062,-0.1335,-0.3489,0.885,-1.6785,-1.6785
1.037485024,1.039914032,-1.062,-0.1335,-0.3489,0.885,-1.6785,-1.6785
1.040269991,1.042702099,-1.062,-0.1335,-0.3489,0.885,-1.6785,-1.6785
1.043057104,1.045473,-1.062,-0.1335,-0.3489,0.8087,-2.0447,-1.5717
1.045828005,1.04825296,-1.062,-0.1335,-0.3489,0.8087,-2.0447,-1.5717
1.048607966,1.051025053,-1.0571,-0.1279,-0.3469,0.8087,-2.0447,-1.5717
1.051483055,1.053788086,-1.0571,-0.1279,-0.3469,0.8087,-2.0447,-1.5717
1.054136893,1.056425949,-1.0571,-0.1279,-0.3469,1.236,-1.9836,-1.5869
1.056771895,1.059065958,-1.0571,-0.1279,-0.3469,1.236,-1.9836,-1.5869
1.059413096,1.061876913,-1.0571,-0.1279,-0.3469,1.236,-1.9836,-1.5869
1.062220951,1.064515015,-1.0571,-0.1279,-0.3469,1.236,-1.9836,-1.5869
1.064859053,1.06872811,-1.0571,-0.1279,-0.3469,1.0681,-1.7395,-1.9379
1.07000508,1.072389027,-1.0647,-0.1301,-0.3542,1.0681,-1.7395,-1.9379
1.072739025,1.075033089,-1.0647,-0.1301,-0.3542,1.0681,-1.7395,-1.9379
1.075379034,1.077675005,-1.0647,-0.1301,-0.3542,0.7019,-2.1667,-2.4719
1.078020951,1.080310961,-1.0647,-0.1301,-0.3542,0.7019,-2.1667,-2.4719
1.080655953,1.083005091,-1.0647,-0.1301,-0.3542,0.7019,-2.1667,-2.4719
1.083348891,1.085636994,-1.0647,-0.1301,-0.3542,0.7019,-2.1667,-2.4719
1.085982939,1.088277003,-1.0647,-0.1301,-0.3542,0.2594,-1.8158,-2.5177
1.088625094,1.090915104,-1.0596,-0.1313,-0.3481,0.2594,-1.8158,-2.5177
1.091262957,1.093592068,-1.0596,-0.1313,-0.3481,0.2594,-1.8158,-2.5177
1.093938967,1.09622707,-1.0596,-0.1313,-0.3481,0.2594,-1.8158,-2.5177
1.096573015,1.09887304,-1.0596,-0.1313,-0.3481,-0.0458,-1.8311,-2.5787
1.099218985,1.101586958,-1.0596,-0.1313,-0.3481,-0.0458,-1.8311,-2.5787
1.101951023,1.104252001,-1.0596,-0.1313,-0.3481,-0.0458,-1.8311,-2.5787
1.104601046,1.106891056,-1.0596,-0.1313,-0.3481,-0.0458,-1.8311,-2.5787
1.107238909,1.109531065,-1.0596,-0.1313,-0.3481,0.0153,-2.0599,-2.8229
1.109877964,1.112384936,-1.0632,-0.1311,-0.3467,0.0153,-2.0599,-2.8229
1.112733027,1.115029951,-1.0632,-0.1311,-0.3467,0.0153,-2.0599,-2.8229
1.115378043,1.11766996,-1.0632,-0.1311,-0.3467,0.0153,-2.0599,-2.8229
1.118018051,1.120312115,-1.0632,-0.1311,-0.3467,0.3357,-2.0142,-3.0975
1.120659014,1.123185059,-1.0632,-0.1311,-0.3467,0.3357,-2.0142,-3.0975
1.12353911,1.125951906,-1.0632,-0.1311,-0.3467,0.3357,-2.0142,-3.0975
1.126305958,1.128712078,-1.0632,-0.1311,-0.3467,0.3357,-2.0142,-3.0975
1.129064938,1.131482025,-1.064,-0.1255,-0.3445,0.6256,-2.2736,-3.2043
1.131834885,1.134220978,-1.064,-0.1255,-0.3445,0.6256,-2.2736,-3.2043
1.13457503,1.136962076,-1.064,-0.1255,-0.3445,0.6256,-2.2736,-3.2043
1.137313029,1.139695069,-1.064,-0.1255,-0.3445,0.6256,-2.2736,-3.2043
1.140047928,1.14248099,-1.064,-0.1255,-0.3445,0.351,-2.4567,-3.5095
1.142835041,1.14525499,-1.064,-0.1255,-0.3445,0.351,-2.4567,-3.5095
1.145609995,1.148033043,-1.064,-0.1255,-0.3445,0.351,-2.4567,-3.5095
1.148385903,1.15080609,-1.064,-0.1328,-0.3457,0.351,-2.4567,-3.5095
1.151161095,1.153582951,-1.0652,-0.1328,-0.3457,0.1526,-2.3956,-3.4943
1.153936049,1.156367918,-1.0652,-0.1328,-0.3457,0.1526,-2.3956,-3.4943
1.156716009,1.15901198,-1.0652,-0.1328,-0.3457,0.1526,-2.3956,-3.4943
1.159357926,1.16186299,-1.0652,-0.1328,-0.3457,0.1526,-2.3956,-3.4943
1.162211081,1.164509913,-1.0652,-0.1328,-0.3457,-0.0916,-2.2888,-3.479
1.16485705,1.169252058,-1.0652,-0.1328,-0.3457,-0.0916,-2.2888,-3.479
1.169604918,1.172540089,-1.0593,-0.1311,-0.3477,-0.0916,-2.2888,-3.479
1.172890087,1.175928017,-1.0593,-0.1311,-0.3477,0.1984,-2.0905,-3.9368
1.176278015,1.178932091,-1.0593,-0.1311,-0.3477,0.1984,-2.0905,-3.9368
1.17928209,1.181579968,-1.0593,-0.1311,-0.3477,0.1984,-2.0905,-3.9368
1.181928059,1.184218069,-1.0593,-0.1311,-0.3477,0.1984,-2.0905,-3.9368
1.184564968,1.186849018,-1.0593,-0.1311,-0.3477,0.1984,-2.4872,-4.0436
1.187307974,1.189602038,-1.0593,-0.1311,-0.3477,0.1984,-2.4872,-4.0436
1.189947983,1.192279002,-1.0605,-0.1448,-0.3462,0.1984,-2.4872,-4.0436
1.192624947,1.19491901,-1.0605,-0.1448,-0.3462,0.1984,-2.4872,-4.0436
1.195265909,1.197559019,-1.0605,-0.1448,-0.3462,0.2747,-2.182,-3.8757
1.197905918,1.200198075,-1.0605,-0.1448,-0.3462,0.2747,-2.182,-3.8757
1.200544974,1.202844044,-1.0605,-0.1448,-0.3462,0.2747,-2.182,-3.8757
1.203190943,1.205479046,-1.0605,-0.1448,-0.3462,0.2747,-2.182,-3.8757
1.205824992,1.208115956,-1.0605,-0.1448,-0.3462,0.4272,-2.1057,-3.7689
1.208459994,1.210750958,-1.0605,-0.1372,-0.3474,0.4272,-2.1057,-3.7689
1.211096903,1.213461062,-1.0596,-0.1372,-0.3474,0.4272,-2.1057,-3.7689
1.213807007,1.216092964,-1.0596,-0.1372,-0.3474,0.4272,-2.1057,-3.7689
1.216441056,1.218731066,-1.0596,-0.1372,-0.3474,0.7782,-1.9836,-3.6011
1.219078919,1.221366068,-1.0596,-0.1372,-0.3474,0.7782,-1.9836,-3.6011
1.221907994,1.224203965,-1.0596,-0.1372,-0.3474,0.7782,-1.9836,-3.6011
1.22454991,1.226844927,-1.0596,-0.1372,-0.3474,0.7782,-1.9836,-3.6011
1.227189919,1.229484936,-1.0596,-0.1372,-0.3474,0.4425,-1.8921,-3.479
1.229830881,1.232211014,-1.0645,-0.1421,-0.3413,0.4425,-1.8921,-3.479
1.232560059,1.234850069,-1.0645,-0.1421,-0.3413,0.4425,-1.8921,-3.479
1.235199114,1.237485071,-1.0645,-0.1421,-0.3413,0.4425,-1.8921,-3.479
1.237830063,1.240118882,-1.0645,-0.1421,-0.3413,-3.4637,-1.9073,-3.6011
1.240465065,1.242799898,-1.0645,-0.1421,-0.3413,-0.0763,-1.9073,-3.6011
1.24314799,1.245437046,-1.0645,-0.1421,-0.3413,-0.0763,-1.9073,-3.6011
1.245784899,1.248079916,-1.0645,-0.1421,-0.3413,-0.0763,-1.9073,-3.6011
1.2484261,1.250716111,-1.0645,-0.144,-0.3477,-0.0763,-1.9073,-3.2959
1.251066109,1.253434082,-1.0557,-0.144,-0.3477,-0.1984,-2.4719,-3.2959
1.253780028,1.256096026,-1.0557,-0.144,-0.3477,-0.1984,-2.4719,-3.2959
1.256442925,1.258735081,-1.0557,-0.144,-0.3477,-0.1984,-2.4719,-3.2959
1.259080073,1.261376044,-1.0557,-0.144,-0.3477,-0.1984,-2.4719,-3.2806
1.261927983,1.264218947,-1.0557,-0.144,-0.3477,-0.3815,-2.6703,-3.2806
1.264564892,1.266858002,-1.0557,-0.144,-0.3477,-0.3815,-2.6703,-3.2806
1.267270943,1.272281071,-1.0557,-0.1445,-0.3459,-0.3815,-2.6703,-3.2196
1.272631069,1.274922987,-1.0603,-0.1445,-0.3459,-0.1678,-2.2736,-3.2196
1.275267979,1.277562996,-1.0603,-0.1445,-0.3459,-0.1678,-2.2736,-3.2196
1.277907988,1.280196091,-1.0603,-0.1445,-0.3459,-0.1678,-2.2736,-3.2196
1.280542036,1.28284206,-1.0603,-0.1445,-0.3459,-0.1678,-2.2736,-3.2196
1.283189913,1.285482069,-1.0603,-0.1445,-0.3459,0.0763,-1.9684,-3.2654
1.285831114,1.288128039,-1.0603,-0.1445,-0.3459,0.0763,-1.9684,-3.2654
1.288478037,1.290769001,-1.0603,-0.1445,-0.3364,0.0763,-1.9684,-3.2654
1.291117092,1.293444058,-1.0608,-0.1404,-0.3364,0.0763,-1.9684,-3.2654
1.293790003,1.296090027,-1.0608,-0.1404,-0.3364,0.2747,-1.7853,-2.8992
1.296435972,1.298724076,-1.0608,-0.1404,-0.3364,0.2747,-1.7853,-2.8992
1.299070021,1.301359078,-1.0608,-0.1404,-0.3364,0.2747,-1.7853,-2.8992
1.301705023,1.304002901,-1.0608,-0.1404,-0.3364,0.2747,-1.7853,-2.8992
1.304463049,1.306754967,-1.0608,-0.1404,-0.3364,0.1373,-1.5259,-2.7161
1.307100912,1.309393069,-1.0608,-0.1404,-0.3364,0.1373,-1.5259,-2.7161
1.309739014,1.312208077,-1.0671,-0.1462,-0.3442,0.1373,-1.5259,-2.7161
1.312554976,1.314841887,-1.0671,-0.1462,-0.3442,0.1373,-1.5259,-2.7161
1.315187117,1.317483088,-1.0671,-0.1462,-0.3442,-0.3357,-1.5564,-3.1891
1.31782808,1.320114037,-1.0671,-0.1462,-0.3442,-0.3357,-1.5564,-3.1891
1.32046189,1.323022982,-1.0671,-0.1462,-0.3442,-0.3357,-1.5564,-3.1891
1.32337608,1.325802943,-1.0671,-0.1462,-0.3442,-0.3357,-1.5564,-3.1891
1.32615604,1.328575989,-1.0671,-0.1462,-0.3442,-0.3662,-1.5869,-3.2654
1.328929087,1.331351897,-1.0671,-0.1501,-0.3452,-0.3662,-1.5869,-3.2654
1.331696888,1.333988091,-1.0618,-0.1501,-0.3452,-0.3662,-1.5869,-3.2654
1.334334036,1.3366281,-1.0618,-0.1501,-0.3452,-0.3662,-1.5869,-3.2654
1.336974999,1.339273115,-1.0618,-0.1501,-0.3452,-0.2441,-1.1444,-2.5635
1.339619061,1.341951033,-1.0618,-0.1501,-0.3452,-0.2441,-1.1444,-2.5635
1.342306038,1.344727894,-1.0618,-0.1501,-0.3452,-0.2441,-1.1444,-2.5635
1.345080992,1.347510001,-1.0618,-0.1501,-0.3452,-0.2441,-1.1444,-2.5635
1.347865006,1.350284001,-1.0618,-0.1501,-0.3452,-0.1526,-1.5411,-2.7008
1.350638052,1.352989098,-1.061,-0.1392,-0.3464,-0.1526,-1.5411,-2.7008
1.353335997,1.355626961,-1.061,-0.1392,-0.3464,-0.1526,-1.5411,-2.7008
1.355974098,1.35826697,-1.061,-0.1392,-0.3464,-0.1526,-1.5411,-2.7008
1.358611962,1.361060044,-1.061,-0.1392,-0.3464,0.1831,-1.3885,-2.7313
1.361407896,1.3639039,-1.061,-0.1392,-0.3464,0.1831,-1.3885,-2.7313
1.364248892,1.366536042,-1.061,-0.1392,-0.3464,0.1831,-1.3885,-2.7313
1.368193051,1.370490929,-1.061,-0.1392,-0.3464,0.1831,-1.3885,-2.8534
1.370840927,1.373207947,-1.0662,-0.1497,-0.3442,-0.0153,-1.709,-2.8534
1.373556038,1.375850102,-1.0662,-0.1497,-0.3442,-0.0153,-1.709,-2.8534
1.376197954,1.378483912,-1.0662,-0.1497,-0.3442,-0.0153,-1.709,-2.8534
1.378832003,1.381120106,-1.0662,-0.1497,-0.3442,-0.0153,-1.709,-2.6093
1.381542107,1.383836886,-1.0662,-0.1497,-0.3442,-0.1221,-1.1139,-2.6093
1.384186884,1.386474034,-1.0662,-0.1497,-0.3442,-0.1221,-1.1139,-2.6093
1.386821886,1.389113089,-1.0662,-0.1497,-0.3442,-0.1221,-1.1139,-2.6093
1.389459034,1.391755005,-1.0569,-0.1448,-0.3552,-0.1221,-1.1139,-2.6093
1.392101904,1.39439406,-1.0569,-0.1448,-0.3552,0.0153,-0.9766,-2.4414
1.394744059,1.397035977,-1.0569,-0.1448,-0.3552,0.0153,-0.9766,-2.4414
1.397384068,1.399681946,-1.0569,-0.1448,-0.3552,0.0153,-0.9766,-2.4414
1.400030037,1.402329108,-1.0569,-0.1448,-0.3552,0.0153,-0.9766,-2.4414
1.402679106,1.404962918,-1.0569,-0.1448,-0.3552,-0.0305,-0.946,-2.5787
1.405312916,1.407600066,-1.0569,-0.1448,-0.3552,-0.0305,-0.946,-2.5787
1.407947918,1.410237929,-1.0569,-0.1448,-0.3552,-0.0305,-0.946,-2.5787
1.410585066,1.412988087,-1.0601,-0.1506,-0.3513,-0.0305,-0.946,-2.5787
1.413336893,1.415624996,-1.0601,-0.1506,-0.3513,0.0763,-1.3123,-2.7466
1.415973088,1.418266913,-1.0601,-0.1506,-0.3513,0.0763,-1.3123,-2.7466
1.418615004,1.420905968,-1.0601,-0.1506,-0.3513,0.0763,-1.3123,-2.7466
1.42136397,1.423741957,-1.0601,-0.1506,-0.3513,0.0763,-1.3123,-2.7466
1.424090048,1.426381012,-1.0601,-0.1506,-0.3513,0.1678,-0.9613,-2.4567
1.426726958,1.429017922,-1.0601,-0.1506,-0.3513,0.1678,-0.9613,-2.4567
1.429364106,1.431702038,-1.0601,-0.1489,-0.3455,0.1678,-0.9613,-2.4567
1.432048937,1.43433704,-1.0601,-0.1489,-0.3455,0.1678,-0.9613,-2.4567
1.434683939,1.436974903,-1.0601,-0.1489,-0.3455,0,-1.1292,-2.5024
1.437322995,1.439613005,-1.0601,-0.1489,-0.3455,0,-1.1292,-2.5024
1.439961096,1.442270895,-1.0601,-0.1489,-0.3455,0,-1.1292,-2.5024
1.442618033,1.44491305,-1.0601,-0.1489,-0.3455,0,-1.1292,-2.5024
1.445258995,1.447554013,-1.0601,-0.1489,-0.3455,0.2899,-0.9155,-1.8921
1.447899958,1.450188061,-1.0601,-0.1489,-0.3455,0.2899,-0.9155,-1.8921
1.450535914,1.452856919,-1.0596,-0.1514,-0.3518,0.2899,-0.9155,-1.8921
1.45320501,1.455496928,-1.0596,-0.1514,-0.3518,0.2899,-0.9155,-1.8921
1.455844065,1.458139082,-1.0596,-0.1514,-0.3518,0.2899,-0.8087,-1.6785
1.458486935,1.460866114,-1.0596,-0.1514,-0.3518,0.1831,-0.8087,-1.6785
1.46121492,1.46370711,-1.0596,-0.1514,-0.3518,0.1831,-0.8087,-1.6785
1.464054962,1.466350933,-1.0596,-0.1514,-0.3518,0.1831,-0.8087,-1.6785
1.468592068,1.470889946,-1.0596,-0.1514,-0.3518,0.1373,-1.1292,-2.0142
1.471238991,1.473605057,-1.0608,-0.144,-0.3472,0.1373,-1.1292,-2.0142
1.47395291,1.476244112,-1.0608,-0.144,-0.3472,0.1373,-1.1292,-2.0142
1.476591011,1.478886029,-1.0608,-0.144,-0.3472,0.1373,-1.1292,-2.0142
1.479232928,1.481531998,-1.0608,-0.144,-0.3472,0.473,-1.0834,-1.9989
1.481878897,1.484172961,-1.0608,-0.144,-0.3472,0.473,-1.0834,-1.9989
1.484520098,1.486810108,-1.0608,-0.144,-0.3472,0.473,-1.0834,-1.9989
1.487156054,1.489447018,-1.0608,-0.144,-0.3472,0.473,-1.0834,-1.9989
1.489795109,1.492092987,-1.0608,-0.1423,-0.3499,0.3357,-0.7782,-2.0294
1.492442032,1.49473395,-1.0596,-0.1423,-0.3499,0.3357,-0.7782,-2.0294
1.495081087,1.497369906,-1.0596,-0.1423,-0.3499,0.3357,-0.7782,-2.0294
1.497717043,1.500008007,-1.0596,-0.1423,-0.3499,0.3357,-0.7782,-2.0294
1.500356098,1.502653023,-1.0596,-0.1423,-0.3499,0.2594,-0.824,-1.9989
1.502999922,1.505289933,-1.0596,-0.1423,-0.3499,0.2594,-0.824,-1.9989
1.505636116,1.507929941,-1.0596,-0.1423,-0.3499,0.2594,-0.824,-1.9989
1.508275887,1.510565897,-1.0596,-0.1423,-0.3499,0.2594,-0.824,-1.9989
1.510913988,1.513349911,-1.0647,-0.1484,-0.3516,0.0305,-0.9308,-2.5024
1.513699909,1.515996119,-1.0647,-0.1484,-0.3516,0.0305,-0.9308,-2.5024
1.516344925,1.518645903,-1.0647,-0.1484,-0.3516,0.0305,-0.9308,-2.5024
1.51899304,1.521288058,-1.0647,-0.1484,-0.3516,0.0305,-0.9308,-2.5024
1.521642109,1.524069926,-1.0647,-0.1484,-0.3516,0.2136,-1.0376,-2.1667
1.524423977,1.526846072,-1.0647,-0.1484,-0.3516,0.2136,-1.0376,-2.1667
1.527199885,1.529621025,-1.0647,-0.1484,-0.3516,0.2136,-1.0376,-2.1667
1.529973885,1.532347103,-1.0022,-0.1567,-0.3489,0.2136,-1.0376,-2.1667
1.532692095,1.53498902,-1.0569,-0.1567,-0.3489,0.2899,-0.9613,-2.1973
1.535445114,1.5377449,-1.0569,-0.1567,-0.3489,0.2899,-0.9613,-2.1973
1.538092991,1.540392062,-1.0569,-0.1567,-0.3489,0.2899,-0.9613,-2.1973
1.540741106,1.543058058,-1.0569,-0.1567,-0.3489,0.2899,-0.9613,-2.1973
1.543407103,1.545695921,-1.0569,-0.1567,-0.3489,0.5493,-0.7782,-2.0142
1.546042105,1.548333069,-1.0569,-0.1567,-0.3489,0.5493,-0.7782,-2.0142
1.548679014,1.550969025,-1.0569,-0.1567,-0.3489,0.5493,-0.7782,-2.0142
1.55131497,1.553707978,-1.0579,-0.1521,-0.3491,0.5493,-0.7782,-2.0142
1.554052969,1.556347033,-1.0579,-0.1521,-0.3491,1.0529,-0.8698,-1.8463
1.556693932,1.558987042,-1.0579,-0.1521,-0.3491,1.0529,-0.8698,-1.8463
1.55933704,1.561690947,-1.0579,-0.1521,-0.3491,1.0529,-0.8698,-1.8463
1.562036892,1.564407965,-1.0579,-0.1521,-0.3491,1.0529,-0.8698,-1.8463
1.564756056,1.567047974,-1.0579,-0.1521,-0.3491,1.0529,-1.2054,-1.8463
1.567395111,1.569680115,-1.0579,-0.1521,-0.3491,1.4343,-1.2054,-1.8463
1.570025107,1.572327992,-1.0579,-0.1484,-0.3376,1.4343,-1.2054,-1.8463
1.572673937,1.574961087,-1.0547,-0.1484,-0.3376,1.4343,-1.2054,-1.8463
1.575307986,1.577684065,-1.0547,-0.1484,-0.3376,1.4343,-1.2054,-1.8463
1.578045985,1.580354115,-1.0547,-0.1484,-0.3376,1.6937,-1.2817,-1.8463
1.58070006,1.584780117,-1.0547,-0.1484,-0.3376,1.6937,-1.2817,-1.8463
1.58512797,1.587423941,-1.0547,-0.1484,-0.3376,1.6937,-1.2817,-1.8463
1.587769886,1.590062996,-1.0547,-0.1484,-0.3376,1.236,-0.9308,-2.1667
1.590408942,1.592820069,-1.0605,-0.144,-0.3354,1.236,-0.9308,-2.1667
1.593167921,1.595465084,-1.0605,-0.144,-0.3354,1.236,-0.9308,-2.1667
1.595811983,1.598102948,-1.0605,-0.144,-0.3354,1.236,-0.9308,-2.1667
1.598450085,1.600735089,-1.0605,-0.144,-0.3354,0.9918,-0.7935,-2.1362
1.601085087,1.603418967,-1.0605,-0.144,-0.3354,0.9918,-0.7935,-2.1362
1.603767058,1.606059929,-1.0605,-0.144,-0.3354,0.9918,-0.7935,-2.1362
1.606407067,1.608702084,-1.0605,-0.144,-0.3354,0.9918,-0.7935,-2.1362
1.609049937,1.611343046,-1.0605,-0.144,-0.3354,0.946,-0.8698,-2.3651
1.611688992,1.613978049,-1.0583,-0.1416,-0.3455,0.946,-0.8698,-2.3651
1.614324948,1.616620919,-1.0583,-0.1416,-0.3455,0.946,-0.8698,-2.3651
1.61696901,1.619260927,-1.0583,-0.1416,-0.3455,0.946,-0.8698,-2.3651
1.619609972,1.621934077,-1.0583,-0.1416,-0.3455,-0.1526,-1.3275,-2.7618
1.622280022,1.624570032,-1.0583,-0.1416,-0.3455,-0.1526,-1.3275,-2.7618
1.624915024,1.627197882,-1.0583,-0.1416,-0.3455,-0.1526,-1.3275,-2.7618
1.627545019,1.62984099,-1.0583,-0.1416,-0.3455,-0.1526,-1.3275,-2.7618
1.630187889,1.632655045,-1.0583,-0.1543,-0.3545,-0.1526,-1.1292,-3.1128
1.633001944,1.635291001,-1.0613,-0.1543,-0.3545,-0.2289,-1.1292,-3.1128
1.635639092,1.637936016,-1.0613,-0.1543,-0.3545,-0.2289,-1.1292,-3.1128
1.638281008,1.640572926,-1.0613,-0.1543,-0.3545,-0.2289,-1.1292,-3.1128
1.64091911,1.643329045,-1.0613,-0.1543,-0.3545,-0.2289,-0.9003,-2.8687
1.643675944,1.645969054,-1.0613,-0.1543,-0.3545,-0.0305,-0.9003,-2.8687
1.646316906,1.64861097,-1.0613,-0.1543,-0.3545,-0.0305,-0.9003,-2.8687
1.648958107,1.651251932,-1.0613,-0.1543,-0.3545,-0.0305,-0.9003,-2.8687
1.651806017,1.654100081,-1.052,-0.1545,-0.3511,-0.0305,-0.9003,-2.7466
1.65444698,1.656737944,-1.052,-0.1545,-0.3511,0.1678,-1.0986,-2.7466
1.657083889,1.659376999,-1.052,-0.1545,-0.3511,0.1678,-1.0986,-2.7466
1.659722945,1.662054917,-1.052,-0.1545,-0.3511,0.1678,-1.0986,-2.7466
1.6624011,1.664692065,-1.052,-0.1545,-0.3511,0.1678,-1.0986,-2.655
1.66503801,1.667457005,-1.052,-0.1545,-0.3511,0.5035,-0.9918,-2.655
1.66780605,1.670101067,-1.052,-0.1545,-0.3511,0.5035,-0.9918,-2.655
1.67044892,1.672811886,-1.052,-0.1479,-0.3479,0.5035,-0.9918,-2.655
1.673160931,1.675453087,-1.0522,-0.1479,-0.3479,0.5035,-0.9918,-2.8076
1.675799032,1.680297037,-1.0522,-0.1479,-0.3479,0.2441,-0.9308,-2.8076
1.680647036,1.682985922,-1.0522,-0.1479,-0.3479,0.2441,-0.9308,-2.8076
1.683334967,1.685629031,-1.0522,-0.1479,-0.3479,0.2441,-0.9308,-2.8076
1.685978075,1.688269039,-1.0522,-0.1479,-0.3479,0.2899,-1.2665,-2.5482
1.688615938,1.690903088,-1.0522,-0.1479,-0.3479,0.2899,-1.2665,-2.5482
1.691249033,1.69362106,-1.0603,-0.1531,-0.3442,0.2899,-1.2665,-2.5482
1.693968912,1.696257016,-1.0603,-0.1531,-0.3442,0.2899,-1.2665,-2.5482
1.696602961,1.698892971,-1.0603,-0.1531,-0.3442,0.412,-1.6479,-2.533
1.699240109,1.701541086,-1.0603,-0.1531,-0.3442,0.412,-1.6479,-2.533
1.701887986,1.704183003,-1.0603,-0.1531,-0.3442,0.412,-1.6479,-2.533
1.704531094,1.706821104,-1.0603,-0.1531,-0.3442,0.412,-1.6479,-2.533
1.707169911,1.709462067,-1.0603,-0.1531,-0.3442,0.5035,-1.5259,-2.7008
1.709808012,1.712104937,-1.0603,-0.1531,-0.3442,0.5035,-1.5259,-2.7008
1.712452074,1.714745899,-1.063,-0.1555,-0.3428,0.5035,-1.5259,-2.7008
1.715092083,1.7173871,-1.063,-0.1555,-0.3428,0.5035,-1.5259,-2.7008
1.717733046,1.720020911,-1.063,-0.1555,-0.3428,0.5341,-1.6327,-2.533
1.720368048,1.722885033,-1.063,-0.1555,-0.3428,0.5341,-1.6327,-2.533
1.723234078,1.725526949,-1.063,-0.1555,-0.3428,0.5341,-1.6327,-2.533
1.725872895,1.728167912,-1.063,-0.1555,-0.3428,0.5341,-1.6327,-2.533
1.728512903,1.730806013,-1.063,-0.1555,-0.3428,0.6561,-1.297,-2.0905
1.731151959,1.733597895,-1.0593,-0.1609,-0.3442,0.6561,-1.297,-2.0905
1.733945986,1.736235043,-1.0593,-0.1609,-0.3442,0.6561,-1.297,-2.0905
1.736581942,1.738872906,-1.0593,-0.1609,-0.3442,0.6561,-1.297,-2.0905
1.739220997,1.741514107,-1.0593,-0.1609,-0.3442,0.6561,-1.4496,-2.1057
1.74186196,1.74415507,-1.0593,-0.1609,-0.3442,0.3662,-1.4496,-2.1057
1.744501969,1.746792933,-1.0593,-0.1609,-0.3442,0.3662,-1.4496,-2.1057
1.74714007,1.749433895,-1.0593,-0.1609,-0.3442,0.3662,-1.4496,-2.1057
1.749778887,1.752093931,-1.0593,-0.1609,-0.3442,0.3662,-1.4496,-2.0752
1.752441069,1.754731079,-1.0586,-0.1572,-0.3474,0.3815,-1.5717,-2.0752
1.755077978,1.757369896,-1.0586,-0.1572,-0.3474,0.3815,-1.5717,-2.0752
1.757717987,1.760008951,-1.0586,-0.1572,-0.3474,0.3815,-1.5717,-2.0752
1.760357043,1.76266708,-1.0586,-0.1572,-0.3474,0.3815,-1.5717,-1.6327
1.763013026,1.765308043,-1.0586,-0.1572,-0.3474,0.5341,-1.709,-1.6327
1.765655896,1.767945906,-1.0586,-0.1572,-0.3474,0.5341,-1.709,-1.6327
1.768412014,1.770704886,-1.0586,-0.1572,-0.3474,0.5341,-1.709,-1.6327
1.77105107,1.773519894,-1.0615,-0.1653,-0.3403,0.5341,-1.709,-1.6327
1.773868939,1.776157996,-1.0615,-0.1653,-0.3403,0.4425,-1.77,-1.4801
1.776506087,1.781484028,-1.0615,-0.1653,-0.3403,0.4425,-1.77,-1.4801
1.781835934,1.784781119,-1.0615,-0.1653,-0.3403,0.4425,-1.77,-1.236
1.785144945,1.787447115,-1.0615,-0.1653,-0.3403,0.3815,-1.3733,-1.236
1.787798067,1.790090939,-1.0615,-0.1653,-0.3403,0.3815,-1.3733,-1.236
1.790436884,1.792735955,-1.0615,-0.1653,-0.3389,0.3815,-1.3733,-1.236
1.793083092,1.79537501,-1.0642,-0.167,-0.3389,0.3815,-1.3733,-0.7935
1.795723101,1.798009058,-1.0642,-0.167,-0.3389,0.946,-1.4038,-0.7935
1.798356911,1.800646921,-1.0642,-0.167,-0.3389,0.946,-1.4038,-0.7935
1.800994059,1.803289076,-1.0642,-0.167,-0.3389,0.946,-1.4038,-0.7935
1.803635975,1.805927893,-1.0642,-0.167,-0.3389,0.946,-1.4038,-0.7935
1.806276938,1.808567902,-1.0642,-0.167,-0.3389,0.7629,-1.3885,-0.0458
1.8089179,1.811206957,-1.0642,-0.167,-0.3389,0.7629,-1.3885,-0.0458
1.811552903,1.813841959,-1.0596,-0.1501,-0.3418,0.7629,-1.3885,-0.0458
1.814191004,1.816476008,-1.0596,-0.1501,-0.3418,0.7629,-1.3885,-0.0458
1.816824099,1.81911697,-1.0596,-0.1501,-0.3418,0.2136,-1.0071,-0.1068
1.819464108,1.821756979,-1.0596,-0.1501,-0.3418,0.2136,-1.0071,-0.1068
1.82210507,1.824391981,-1.0596,-0.1501,-0.3418,0.2136,-1.0071,-0.1068
1.824741026,1.82703199,-1.0596,-0.1501,-0.3418,0.2136,-1.0071,-0.1068
1.827381989,1.829671999,-1.0596,-0.1501,-0.3418,-0.2899,-0.9918,-0.1221
1.830021044,1.832439085,-1.0596,-0.1501,-0.3418,-0.2899,-0.9918,-0.1221
1.832787892,1.835079094,-1.0557,-0.1721,-0.3418,-0.2899,-0.9918,-0.1221
1.835426947,1.837721964,-1.0557,-0.1721,-0.3418,-0.2899,-0.9918,-0.1221
1.838071009,1.840366026,-1.0557,-0.1721,-0.3418,-0.8087,-1.0376,0.2441
1.840712925,1.843221089,-1.0557,-0.1721,-0.3418,-0.8087,-1.0376,0.2441
1.843577048,1.846000096,-1.0557,-0.1721,-0.3418,-0.8087,-1.0376,0.2441
1.846355101,1.848774096,-1.0557,-0.1721,-0.3418,-0.8087,-1.0376,0.2441
1.849126955,1.851559063,-1.0557,-0.1721,-0.3418,-0.8545,-1.0071,0.5798
1.851905962,1.854202887,-1.0508,-0.1628,-0.3506,-0.8545,-1.0071,0.5798
1.854550024,1.856842896,-1.0508,-0.1628,-0.3506,-0.8545,-1.0071,0.5798
1.857190987,1.85947909,-1.0508,-0.1628,-0.3506,-0.8545,-1.0071,0.5798
1.859825035,1.86212792,-1.0508,-0.1628,-0.3506,-0.5798,-1.4343,0.9308
1.862475058,1.864767929,-1.0508,-0.1628,-0.3506,-0.5798,-1.4343,0.9308
1.86511602,1.867401978,-1.0508,-0.1628,-0.3506,-0.5798,-1.4343,0.9308
1.867747923,1.870040079,-1.0508,-0.1628,-0.3506,-0.5798,-1.4343,0.9308
1.870386025,1.872836968,-1.0508,-0.1628,-0.3506,-0.0916,-1.4343,1.2817
1.873189112,1.875482937,-1.0588,-0.1511,-0.3545,-0.0916,-1.4343,1.2817
1.875832936,1.879969021,-1.0588,-0.1511,-0.3545,-0.0916,-1.4343,1.2817
1.88031902,1.884119889,-1.0588,-0.1511,-0.3545,3.8147,-1.5106,1.3275
1.884469887,1.887272974,-1.0588,-0.1511,-0.3545,0.3815,-1.5106,1.3275
1.887754103,1.890334984,-1.0588,-0.1511,-0.3545,0.3815,-1.5106,1.3275
1.890684983,1.893484017,-1.0588,-0.147,-0.3501,0.3815,-1.5106,0.9918
1.893834015,1.896125933,-1.0562,-0.147,-0.3501,0.5341,-1.4496,0.9918
1.896476885,1.898769041,-1.0562,-0.147,-0.3501,0.5341,-1.4496,0.9918
1.899119993,1.901414057,-1.0562,-0.147,-0.3501,0.5341,-1.4496,0.9918
1.901806017,1.904096981,-1.0562,-0.147,-0.3501,0.5341,-1.4496,0.9918
1.904444119,1.906732937,-1.0562,-0.147,-0.3501,0.2136,-1.2817,0.5951
1.907078882,1.909371039,-1.0562,-0.147,-0.3501,0.2136,-1.2817,0.5951
1.909718891,1.912084957,-1.0562,-0.147,-0.3501,0.2136,-1.2817,0.5951
1.912433049,1.91472592,-1.0559,-0.1501,-0.3496,0.2136,-1.2817,0.5951
1.915074965,1.917363068,-1.0559,-0.1501,-0.3496,0.2289,-1.6785,0.061
1.917712113,1.920004031,-1.0559,-0.1501,-0.3496,0.2289,-1.6785,0.061
1.920351883,1.922664067,-1.0559,-0.1501,-0.3496,0.2289,-1.6785,0.061
1.923010012,1.925295016,-1.0559,-0.1501,-0.3496,0.2289,-1.6785,0.061
1.92564406,1.927933117,-1.0559,-0.1501,-0.3496,0.6104,-1.3885,-0.061
1.928281924,1.930575987,-1.0559,-0.1501,-0.3496,0.6104,-1.3885,-0.061
1.930922886,1.933338066,-1.0559,-0.1501,-0.3425,0.6104,-1.3885,-0.061
1.933685919,1.93597593,-1.0642,-0.1289,-0.3425,0.6104,-1.3885,-0.061
1.936324021,1.938615938,-1.0642,-0.1289,-0.3425,0.5951,-1.709,-0.2594
1.938961884,1.94125404,-1.0642,-0.1289,-0.3425,0.5951,-1.709,-0.2594
1.94167008,1.943973919,-1.0642,-0.1289,-0.3425,0.5951,-1.709,-0.2594
1.94432201,1.946613928,-1.0642,-0.1289,-0.3425,0.5951,-1.709,-0.2594
1.946962019,1.949249884,-1.0642,-0.1289,-0.3425,0.6256,-1.9531,-1.3275
1.949596068,1.951939961,-1.0642,-0.1289,-0.3425,0.6256,-1.9531,-1.3275
1.952289006,1.954580923,-1.0688,-0.1228,-0.3604,0.6256,-1.9531,-1.3275
1.954929968,1.957219979,-1.0688,-0.1228,-0.3604,0.6256,-1.9531,-1.3275
1.957567116,1.959859988,-1.0688,-0.1228,-0.3604,0.0153,-2.6398,-2.7924
1.960209032,1.962505003,-1.0688,-0.1228,-0.3604,0.0153,-2.6398,-2.7924
1.962854048,1.965148112,-1.0688,-0.1228,-0.3604,0.0153,-2.6398,-2.7924
1.965495011,1.967783114,-1.0688,-0.1228,-0.3604,0.0153,-2.6398,-2.7924
1.968130013,1.970418116,-1.0688,-0.1228,-0.3604,0.0153,-3.1433,-4.0436
1.970765015,1.973056933,-1.0688,-0.1228,-0.3604,0.1831,-3.1433,-4.0436
1.973405978,1.975794932,-1.0696,-0.114,-0.3567,0.1831,-3.1433,-4.0436
1.97614493,1.978440901,-1.0696,-0.114,-0.3567,0.1831,-3.1433,-4.0436
1.978789946,1.981078049,-1.0696,-0.114,-0.3567,0.1831,-3.1433,-5.3101
1.981615921,1.983905932,-1.0696,-0.114,-0.3567,0.5035,-3.2196,-5.3101
1.984254023,1.986555001,-1.0696,-0.114,-0.3567,0.5035,-3.2196,-5.3101
1.98918595,1.991540095,-1.0696,-0.114,-0.3567,0.5035,-3.2196,-5.3101
1.991891047,1.994186064,-1.0696,-0.1208,-0.3625,0.9003,-3.6926,-6.4392
1.994533917,1.996826073,-1.0745,-0.1208,-0.3625,0.9003,-3.6926,-6.4392
1.997172018,1.999459883,-1.0745,-0.1208,-0.3625,0.9003,-3.6926,-6.4392
1.999807974,2.002109906,-1.0745,-0.1208,-0.3625,0.9003,-3.6926,-6.4392
2.002457043,2.004743954,-1.0745,-0.1208,-0.3625,1.4954,-4.1962,-7.5684
2.005201002,2.00749602,-1.0745,-0.1208,-0.3625,1.4954,-4.1962,-7.5684
2.007844111,2.010131022,-1.0745,-0.1208,-0.3625,1.4954,-4.1962,-7.5684
2.010476013,2.012819907,-1.0745,-0.1208,-0.3625,1.4954,-4.1962,-7.5684
2.013167044,2.015461108,-1.0735,-0.1116,-0.3643,1.0223,-4.7455,-8.728
2.01580896,2.018098971,-1.0735,-0.1116,-0.3643,1.0223,-4.7455,-8.728
2.018446108,2.020736119,-1.0735,-0.1116,-0.3643,1.0223,-4.7455,-8.728
2.021084925,2.023455044,-1.0735,-0.1116,-0.3643,1.0223,-4.7455,-8.728
2.023804089,2.026090046,-1.0735,-0.1116,-0.3643,-0.1831,-5.4321,-10.3302
2.026444098,2.028736016,-1.0735,-0.1116,-0.3643,-0.1831,-5.4321,-10.3302
2.029087921,2.031378886,-1.0735,-0.1116,-0.3643,-0.1831,-5.4321,-10.3302
2.031959912,2.034253022,-1.0735,-0.1182,-0.3552,-0.1831,-5.4321,-10.3302
2.034604927,2.036897084,-1.071,-0.1182,-0.3552,-1.4801,-6.8817,-11.9171
2.037250897,2.039540907,-1.071,-0.1182,-0.3552,-1.4801,-6.8817,-11.9171
2.039895912,2.042345902,-1.071,-0.1182,-0.3552,-1.4801,-6.8817,-11.9171
2.042698046,2.044988056,-1.071,-0.1182,-0.3552,-1.4801,-6.8817,-11.9171
2.045339962,2.047629973,-1.071,-0.1182,-0.3552,-2.5787,-7.4768,-13.3972
2.047980925,2.050276896,-1.071,-0.1182,-0.3552,-2.5787,-7.4768,-13.3972
2.050626894,2.052920958,-1.071,-0.1182,-0.3552,-2.5787,-7.4768,-13.3972
2.053273102,2.05555596,-1.0605,-0.1216,-0.3594,-2.5787,-7.4768,-13.3972
2.055909058,2.058200976,-1.0605,-0.1216,-0.3594,-2.9449,-8.4686,-14.8621
2.058554074,2.060845991,-1.0605,-0.1216,-0.3594,-2.9449,-8.4686,-14.8621
2.061199089,2.063496014,-1.0605,-0.1216,-0.3594,-2.9449,-8.4686,-14.8621
2.063849112,2.066136977,-1.0605,-0.1216,-0.3594,-2.9449,-8.4686,-14.8621
2.066488882,2.068775078,-1.0605,-0.1216,-0.3594,-2.5635,-8.728,-16.1743
2.069128891,2.07147803,-1.0605,-0.1216,-0.3594,-2.5635,-8.728,-16.1743
2.071833035,2.074128052,-1.0605,-0.1841,-0.3394,-2.5635,-8.728,-16.1743
2.074479958,2.076779982,-1.0525,-0.1504,-0.3394,-2.5635,-8.728,-16.1743
2.077134033,2.079426905,-1.0525,-0.1504,-0.3394,-2.5635,-8.8196,-17.5323
2.079779049,2.082373997,-1.0525,-0.1504,-0.3394,-2.4261,-8.8196,-17.5323
2.082728049,2.085018059,-1.0525,-0.1504,-0.3394,-2.4261,-8.8196,-17.5323
2.085370919,2.088750979,-1.0525,-0.1504,-0.3394,-2.4261,-8.8196,-17.5323
2.089105984,2.091395994,-1.0525,-0.1504,-0.3394,-2.4109,-8.8348,-18.0054
2.091832062,2.094124934,-1.0525,-0.1504,-0.3311,-2.4109,-8.8348,-18.0054
2.094477078,2.097134968,-1.0376,-0.1775,-0.3311,-2.4109,-8.8348,-18.0054
2.097490927,2.099780937,-1.0376,-0.1775,-0.3311,-2.4109,-8.8348,-18.0054
2.100134035,2.102465054,-1.0376,-0.1775,-0.3311,-2.0294,-8.606,-18.2343
2.102816006,2.105724951,-1.0376,-0.1775,-0.3311,-2.0294,-8.606,-18.2343
2.106141945,2.109793087,-1.0376,-0.1775,-0.3311,-2.0294,-8.606,-18.2343
2.1101469,2.112476965,-1.0376,-0.1775,-0.3311,-1.9379,-7.6752,-17.5476
2.112829109,2.115115067,-1.0334,-0.189,-0.3081,-1.9379,-7.6752,-17.5476
2.115466973,2.117757937,-1.0334,-0.189,-0.3081,-1.9379,-7.6752,-17.5476
2.118107935,2.120410105,-1.0334,-0.189,-0.3081,-1.9379,-7.6752,-17.5476
2.120761057,2.123092076,-1.0334,-0.189,-0.3081,-1.9379,-5.7526,-16.8762
2.123552939,2.125846049,-1.0334,-0.189,-0.3081,-2.3804,-5.7526,-16.8762
2.126197001,2.128487011,-1.0334,-0.189,-0.3081,-2.3804,-5.7526,-16.8762
2.128837963,2.131127974,-1.0334,-0.189,-0.3081,-2.3804,-5.7526,-16.8762
2.131507059,2.133805891,-1.0334,-0.189,-0.3081,-2.3804,-5.7526,-16.0217
2.134158036,2.136450907,-1.0415,-0.24,-0.29,-2.0599,-4.715,-16.0217
2.136802098,2.139094015,-1.0415,-0.24,-0.29,-2.0599,-4.715,-16.0217
2.139447113,2.141858956,-1.0415,-0.24,-0.29,-2.0599,-4.715,-16.0217
2.1422111,2.144503971,-1.0415,-0.24,-0.29,-2.0599,-4.715,-13.1378
2.144854924,2.147143027,-1.0415,-0.24,-0.29,-1.3733,-3.1281,-13.1378
2.147494932,2.14978995,-1.0415,-0.24,-0.29,-1.3733,-3.1281,-13.1378
2.150142094,2.152594944,-1.0415,-0.24,-0.29,-1.3733,-3.1281,-13.1378
2.152948042,2.155247113,-1.0515,-0.272,-0.3271,-1.3733,-3.1281,-10.1776
2.155598065,2.157889983,-1.0515,-0.272,-0.3271,-1.297,-2.1667,-10.1776
2.158239981,2.160528084,-1.0515,-0.272,-0.3271,-1.297,-2.1667,-10.1776
2.16087689,2.163431069,-1.0515,-0.272,-0.3271,-1.297,-2.1667,-10.1776
2.163791081,2.166206976,-1.0515,-0.272,-0.3271,-1.297,-2.1667,-7.2021
2.166558882,2.168985029,-1.0515,-0.272,-0.3271,-0.0305,-1.5411,-7.2021
2.169340035,2.171764036,-1.0515,-0.272,-0.3271,-0.0305,-1.5411,-7.2021
2.172110935,2.174404999,-1.0515,-0.2095,-0.3281,-0.0305,-1.5411,-7.2021
2.174754044,2.177050015,-1.0601,-0.2332,-0.3281,-0.0305,-1.5411,-4.9133
2.17739906,2.179692885,-1.0601,-0.2332,-0.3281,0.9766,-0.824,-4.9133
2.180040022,2.18264999,-1.0601,-0.2332,-0.3281,0.9766,-0.824,-4.9133
2.182999989,2.185295006,-1.0601,-0.2332,-0.3281,0.9766,-0.824,-4.9133
2.185644051,2.189832112,-1.0601,-0.2332,-0.3281,0.9766,-0.3815,-2.8687
2.19018211,2.192568919,-1.0601,-0.2332,-0.3281,1.3275,-0.3815,-2.8687
2.192917963,2.195208927,-1.0515,-0.2498,-0.3359,1.3275,-0.3815,-2.8687
2.195553919,2.197844883,-1.0515,-0.2498,-0.3359,1.3275,-0.3815,-2.8687
2.198192021,2.200477024,-1.0515,-0.2498,-0.3359,1.2512,-0.1831,-0.824
2.200823923,2.203127047,-1.0515,-0.2498,-0.3359,1.2512,-0.1831,-0.824
2.203473946,2.205762049,-1.0515,-0.2498,-0.3359,1.2512,-0.1831,-0.824
2.206108948,2.208399912,-1.0515,-0.2498,-0.3359,1.2512,-0.1831,-0.824
2.208748003,2.211033007,-1.0515,-0.2498,-0.3359,2.0294,-0.2594,1.1902
2.211381098,2.213678976,-1.0515,-0.2498,-0.3359,2.0294,-0.2594,1.1902
2.214026114,2.216311117,-1.0625,-0.2041,-0.3333,2.0294,-0.2594,1.1902
2.216658016,2.218948027,-1.0625,-0.2041,-0.3333,2.0294,-0.2594,1.1902
2.219293972,2.221583983,-1.0625,-0.2041,-0.3333,1.7853,0.2594,2.2278
2.221929928,2.224224945,-1.0625,-0.2041,-0.3333,1.7853,0.2594,2.2278
2.224570891,2.226862093,-1.0625,-0.2041,-0.3333,1.7853,0.2594,2.2278
2.227208992,2.229498049,-1.0625,-0.2041,-0.3333,1.7853,0.2594,2.2278
2.229844948,2.232218882,-1.0625,-0.2041,-0.3333,1.7853,-0.0916,2.7313
2.232570072,2.234868904,-1.0625,-0.2051,-0.3284,1.1597,-0.0916,2.7313
2.235217949,2.237512013,-1.063,-0.2051,-0.3284,1.1597,-0.0916,2.7313
2.237970015,2.240265986,-1.063,-0.2051,-0.3284,1.1597,-0.0916,2.7313
2.240615031,2.243069073,-1.063,-0.2051,-0.3284,-2.7466,0.1984,3.3417
2.243422886,2.245840927,-1.063,-0.2051,-0.3284,-0.5493,0.1984,3.3417
2.246198078,2.24861302,-1.063,-0.2051,-0.3284,-0.5493,0.1984,3.3417
2.248967072,2.251383921,-1.063,-0.2051,-0.3284,-0.5493,0.1984,3.3417
2.251783034,2.254069945,-1.063,-0.2051,-0.3284,-1.2817,-0.1678,3.8147
2.254417082,2.256712099,-1.052,-0.1826,-0.3284,-1.2817,-0.1678,3.8147
2.257058045,2.259354969,-1.052,-0.1826,-0.3284,-1.2817,-0.1678,3.8147
2.259702107,2.262139937,-1.052,-0.1826,-0.3284,-1.2817,-0.1678,3.8147
2.262487074,2.264778038,-1.052,-0.1826,-0.3284,-1.2817,-0.3357,3.5553
2.265123984,2.267418047,-1.052,-0.1826,-0.3284,-1.5106,-0.3357,3.5553
2.267764946,2.270054957,-1.052,-0.1826,-0.3284,-1.5106,-0.3357,3.5553
2.270400902,2.272770067,-1.052,-0.1826,-0.3284,-1.5106,-0.3357,3.5553
2.27311792,2.275406023,-1.052,-0.1602,-0.3323,-1.5106,-0.3357,3.2043
2.275754114,2.278041025,-1.0557,-0.1602,-0.3323,-1.0529,-0.2899,3.2043
2.27839007,2.280899903,-1.0557,-0.1602,-0.3323,-1.0529,-0.2899,3.2043
2.281247994,2.283728024,-1.0557,-0.1602,-0.3323,-1.0529,-0.2899,3.2043
2.284074923,2.286358019,-1.0557,-0.1602,-0.3323,-1.0529,-0.2899,2.6398
2.290396115,2.292699,-1.0557,-0.1602,-0.3323,-0.6561,-0.1831,2.6398
2.293049952,2.295848986,-1.0557,-0.1653,-0.3376,-0.6561,-0.1831,2.6398
2.296198031,2.299079081,-1.0537,-0.1653,-0.3376,-0.2136,0,1.7395
2.299429079,2.301835915,-1.0537,-0.1653,-0.3376,-0.2136,0,1.7395
2.302183052,2.304475924,-1.0537,-0.1653,-0.3376,-0.2136,0,1.7395
2.304824015,2.307115933,-1.0537,-0.1653,-0.3376,-0.2136,0,1.7395
2.307462117,2.309753081,-1.0537,-0.1653,-0.3376,-0.3357,-0.3815,0.8392
2.310100933,2.312451025,-1.0537,-0.1653,-0.3376,-0.3357,-0.3815,0.8392
2.312797924,2.315090081,-1.0537,-0.1653,-0.3459,-0.3357,-0.3815,0.8392
2.31543698,2.31772699,-1.0564,-0.1392,-0.3459,-0.3357,-0.3815,0.8392
2.318075081,2.320365092,-1.0564,-0.1392,-0.3459,-0.5493,-0.9766,-0.3662
2.320712944,2.323032042,-1.0564,-0.1392,-0.3459,-0.5493,-0.9766,-0.3662
2.323377987,2.325673958,-1.0564,-0.1392,-0.3459,-0.5493,-0.9766,-0.3662
2.326022049,2.328313967,-1.0564,-0.1392,-0.3459,-0.5493,-0.9766,-0.3662
2.328661104,2.330949923,-1.0564,-0.1392,-0.3459,-1.236,-1.3123,-1.8311
2.331296107,2.333620926,-1.0564,-0.1392,-0.3459,-1.236,-1.3123,-1.8311
2.333965918,2.336258074,-1.0735,-0.147,-0.3447,-1.236,-1.3123,-1.8311
2.336605927,2.33889403,-1.0735,-0.147,-0.3447,-1.236,-1.3123,-1.8311
2.339240929,2.341613909,-1.0735,-0.147,-0.3447,-2.0142,-2.1057,-3.5095
2.341977021,2.344284912,-1.0735,-0.147,-0.3447,-2.0142,-2.1057,-3.5095
2.34463205,2.346924921,-1.0735,-0.147,-0.3447,-2.0142,-2.1057,-3.5095
2.347269913,2.349559923,-1.0735,-0.147,-0.3447,-2.0142,-2.1057,-3.5095
2.349904915,2.35234799,-1.0735,-0.147,-0.3447,-1.6022,-2.9297,-5.4932
2.352696081,2.354986092,-1.0735,-0.147,-0.3423,-1.6022,-2.9297,-5.4932
2.355332991,2.357622048,-1.0627,-0.114,-0.3423,-1.6022,-2.9297,-5.4932
2.358082911,2.360376021,-1.0627,-0.114,-0.3423,-1.6022,-2.9297,-5.4932
2.36072292,2.363042971,-1.0627,-0.114,-0.3423,-1.6022,-3.8757,-7.7362
2.363390108,2.365675112,-1.0627,-0.114,-0.3423,-2.4567,-3.8757,-7.7362
2.366022011,2.368314883,-1.0627,-0.114,-0.3423,-2.4567,-3.8757,-7.7362
2.368662974,2.370952984,-1.0627,-0.114,-0.3423,-2.4567,-3.8757,-7.7362
2.371301075,2.373642107,-1.0627,-0.114,-0.3423,-2.4567,-7.782,-11.1847
2.37399592,2.376289984,-1.0723,-0.1643,-0.3279,-3.7842,-4.4861,-11.1847
2.376640936,2.378930947,-1.0723,-0.1643,-0.3279,-3.7842,-4.4861,-11.1847
2.379280945,2.381584069,-1.0723,-0.1643,-0.3279,-3.7842,-4.4861,-11.1847
2.381935021,2.384227892,-1.0723,-0.1643,-0.3279,-3.7842,-4.4861,-14.4501
2.384580036,2.386869093,-1.0723,-0.1643,-0.3279,-4.2267,-5.0812,-14.4501
2.387219092,2.38950791,-1.0723,-0.1643,-0.3279,-4.2267,-5.0812,-14.4501
2.389859101,2.392439982,-1.0723,-0.1643,-0.3279,-4.2267,-5.0812,-14.4501
2.392790934,2.395088097,-1.0723,-0.1643,-0.342,-4.2267,-5.0812,-17.9901
2.395438095,2.39920797,-1.0845,-0.1182,-0.342,-4.0131,-5.0201,-17.9901
2.399562022,2.401895901,-1.0845,-0.1182,-0.342,-4.0131,-5.0201,-17.9901
2.402248045,2.404539963,-1.0845,-0.1182,-0.342,-4.0131,-5.0201,-17.9901
2.404892107,2.407185932,-1.0845,-0.1182,-0.342,-1.2665,-5.2948,-21.9574
2.40753903,2.409834048,-1.0845,-0.1182,-0.342,-1.2665,-5.2948,-21.9574
2.410186907,2.412578007,-1.0845,-0.1182,-0.342,-1.2665,-5.2948,-21.9574
2.412929913,2.415223023,-1.0845,-0.1182,-0.3457,-1.2665,-5.2948,-21.9574
2.415573975,2.417870899,-1.0752,-0.0178,-0.3457,-0.0763,-5.188,-26.1993
2.418224951,2.420514962,-1.0752,-0.0178,-0.3457,-0.0763,-5.188,-26.1993
2.420867106,2.423245093,-1.0752,-0.0178,-0.3457,-0.0763,-5.188,-26.1993
2.423597952,2.425890108,-1.0752,-0.0178,-0.3457,-0.0763,-5.188,-26.1993
2.426243922,2.428528925,-1.0752,-0.0178,-0.3457,-2.3499,-4.9896,-32.196
2.428882023,2.431174895,-1.0752,-0.0178,-0.3457,-2.3499,-4.9896,-32.196
2.431523939,2.433817049,-1.0752,-0.0178,-0.3457,-2.3499,-4.9896,-32.196
2.434169909,2.436459919,-1.0054,-0.1533,-0.3623,-2.3499,-4.9896,-32.196
2.43681111,2.439104935,-1.0054,-0.1533,-0.3623,-2.3499,-4.7607,-36.85
2.43945398,2.44183602,-1.0054,-0.1533,-0.3623,-7.4463,-4.7607,-36.85
2.442187926,2.444486042,-1.0054,-0.1533,-0.3623,-7.4463,-4.7607,-36.85
2.444837948,2.447131058,-1.0054,-0.1533,-0.3623,-7.4463,-4.7607,-36.85
2.447481056,2.449770113,-1.0054,-0.1533,-0.3623,-7.4463,-4.7607,-41.0309
2.450122019,2.452553889,-1.0054,-0.1533,-0.3623,-7.6904,-5.7831,-41.0309
2.452903887,2.455191037,-1.0054,-0.1533,-0.3623,-7.6904,-5.7831,-41.0309
2.455541989,2.457831045,-1.0786,-0.2375,-0.3303,-7.6904,-5.7831,-41.0309
2.458181998,2.460481068,-1.0786,-0.2375,-0.3303,-7.6904,-5.7831,-42.2668
2.460832974,2.463177105,-1.0786,-0.2375,-0.3303,0.1526,-7.1564,-42.2668
2.463529965,2.465824028,-1.0786,-0.2375,-0.3303,0.1526,-7.1564,-42.2668
2.46617498,2.468464991,-1.0786,-0.2375,-0.3303,0.1526,-7.1564,-42.2668
2.468814989,2.471110007,-1.0786,-0.2375,-0.3303,0.1526,-7.1564,-46.1731
2.471521994,2.473818919,-1.0786,-0.2375,-0.3303,5.7831,-7.0038,-44.2963
2.47428002,2.476569077,-1.0906,-0.0461,-0.3518,5.7831,-7.0038,-44.2963
2.476921936,2.479210039,-1.0906,-0.0461,-0.3518,5.7831,-7.0038,-44.2963
2.479564091,2.481897017,-1.0906,-0.0461,-0.3518,5.7831,-7.0038,-44.2963
2.482248923,2.48454394,-1.0906,-0.0461,-0.3518,8.1024,-7.7515,-48.7366
2.484897038,2.487193009,-1.0906,-0.0461,-0.3518,8.1024,-7.7515,-48.7366
2.487543961,2.489983937,-1.0906,-0.0461,-0.3518,8.1024,-7.7515,-48.7366
2.490337988,2.492782971,-1.0906,-0.0461,-0.3518,8.1024,-7.7515,-48.7366
2.493137976,2.495427986,-1.0906,-0.0461,-0.3518,3.9215,-7.6141,-54.5807
2.495778939,2.499322077,-1.0854,-0.2722,-0.3569,3.9215,-7.6141,-54.5807
2.500359913,2.503064057,-1.0854,-0.2722,-0.3569,3.9215,-7.6141,-54.5807
2.503430983,2.505737921,-1.0854,-0.2722,-0.3569,2.9297,-9.2621,-60.1196
2.506092926,2.508381983,-1.0854,-0.2722,-0.3569,2.9297,-9.2621,-60.1196
2.508733889,2.511027952,-1.0854,-0.2722,-0.3569,2.9297,-9.2621,-60.1196
2.51138105,2.513673922,-1.0854,-0.2722,-0.3569,2.9297,-9.2621,-60.1196
2.514026066,2.516322037,-1.0229,0.031,-0.3628,8.8806,-11.7645,-62.7136
2.51667895,2.51896896,-1.02,0.031,-0.3628,8.8806,-11.7645,-62.7136
2.519323012,2.52166309,-1.02,0.031,-0.3628,8.8806,-11.7645,-62.7136
2.522018095,2.524314066,-1.02,0.031,-0.3628,8.8806,-11.7645,-62.7136
2.524669071,2.526955029,-1.02,0.031,-0.3628,9.8572,-11.734,-63.5529
2.527311941,2.529599091,-1.02,0.031,-0.3628,9.8572,-11.734,-63.5529
2.529956003,2.532271048,-1.02,0.031,-0.3628,9.8572,-11.734,-63.5529
2.53262796,2.534917971,-1.02,0.031,-0.3628,9.8572,-11.734,-63.5529
2.53527393,2.537564894,-0.8704,-0.3838,-0.4229,-6.4087,-9.8267,-68.222
2.537916085,2.540206095,-0.8704,-0.3838,-0.4229,-6.4087,-9.8267,-68.222
2.540557047,2.542957922,-0.8704,-0.3838,-0.4229,-6.4087,-9.8267,-68.222
2.54331102,2.545602938,-0.8704,-0.3838,-0.4229,-6.4087,-9.8267,-68.222
2.545955082,2.54824104,-0.8704,-0.3838,-0.4229,-14.2212,-15.3046,-68.9697
2.548600098,2.550886055,-0.8704,-0.3838,-0.4229,-12.8021,-15.3046,-68.9697
2.551242968,2.553695103,-0.8704,-0.3838,-0.4229,-12.8021,-15.3046,-68.9697
2.554050108,2.556341072,-0.8704,-0.5564,-0.2773,-12.8021,-15.3046,-68.9697
2.556697985,2.558989903,-1.0244,-0.5564,-0.2773,-12.8021,-19.2108,-62.2864
2.5593461,2.56177797,-1.0244,-0.5564,-0.2773,-4.6082,-18.7683,-62.2864
2.562133929,2.564424893,-1.0244,-0.5564,-0.2773,-4.6082,-18.7683,-62.2864
2.564779898,2.567073962,-1.0244,-0.5564,-0.2773,-4.6082,-18.7683,-62.2864
2.567427059,2.569716116,-1.0244,-0.5564,-0.2773,-4.6082,-18.7683,-57.2205
2.570069929,2.572426935,-1.0244,-0.5564,-0.2773,1.9836,-17.7307,-57.2205
2.572780987,2.575070998,-1.0244,-0.5564,-0.2773,1.9836,-17.7307,-57.2205
2.575424095,2.57771506,-1.0396,-0.2622,-0.323,1.9836,-17.7307,-57.2205
2.578100106,2.580397984,-1.0396,-0.2622,-0.323,1.9836,-17.7307,-56.3354
2.580753943,2.583051106,-1.0396,-0.2622,-0.323,6.9885,-18.3563,-56.3354
2.583404919,2.585695883,-1.0396,-0.2622,-0.323,6.9885,-18.3563,-56.3354
2.586048981,2.588461062,-1.0396,-0.2622,-0.323,6.9885,-18.3563,-56.3354
2.588935038,2.591230055,-1.0396,-0.2622,-0.323,6.9885,-18.3563,-58.7463
2.591653963,2.593960902,-1.0396,-0.2622,-0.323,7.8278,-17.1356,-58.7463
2.594318053,2.596607109,-1.2271,-0.5364,-0.3003,7.8278,-17.1356,-58.7463
2.59928908,2.602855107,-1.1877,-0.5364,-0.3003,7.8278,-17.1356,-55.3436
2.603213927,2.605508944,-1.1877,-0.5364,-0.3003,12.97,-18.0054,-55.3436
2.605866095,2.60815396,-1.1877,-0.5364,-0.3003,12.97,-18.0054,-55.3436
2.608511111,2.610800883,-1.1877,-0.5364,-0.3003,12.97,-18.0054,-55.3436
2.611155888,2.613538882,-1.1877,-0.5364,-0.3003,12.97,-17.4561,-54.8706
2.613896033,2.616183897,-1.1877,-0.5364,-0.3257,18.2953,-17.4561,-54.8706
2.616540095,2.618830105,-0.9165,-0.0986,-0.3257,18.2953,-17.4561,-54.8706
2.619187971,2.621529003,-0.9165,-0.0986,-0.3257,18.2953,-17.4561,-54.8706
2.621888062,2.624181887,-0.9165,-0.0986,-0.3257,18.2953,-17.4561,-57.8461
2.624539992,2.626825949,-0.9165,-0.0986,-0.3257,17.2424,-16.922,-57.8461
2.627184054,2.629475972,-0.9165,-0.0986,-0.3257,17.2424,-16.922,-57.8461
2.629834076,2.632131954,-0.9165,-0.0986,-0.3257,17.2424,-16.922,-57.8461
2.632491013,2.63478007,-0.9165,-0.0986,-0.3257,17.2424,-16.922,-61.7523
2.63513889,2.637431999,-1.0159,-0.563,-0.3159,6.485,-16.1743,-62.3474
2.637787005,2.640076062,-1.0159,-0.563,-0.3159,6.485,-16.1743,-62.3474
2.64043202,2.642726084,-1.0159,-0.563,-0.3159,6.485,-16.1743,-62.3474
2.643081089,2.645368,-1.0159,-0.563,-0.3159,6.485,-16.1743,-62.3474
2.645721098,2.648011109,-1.0159,-0.563,-0.3159,3.8452,-20.1874,-60.0433
2.648363968,2.650663039,-1.0159,-0.563,-0.3159,3.8452,-20.1874,-60.0433
2.651014944,2.653380057,-1.0159,-0.563,-0.3159,3.8452,-20.1874,-60.0433
2.653734108,2.656035086,-1.0159,-0.563,-0.2534,3.8452,-20.1874,-60.0433
2.656388899,2.658687969,-0.9382,-0.4421,-0.2727,9.6283,-19.5923,-55.0232
2.659043928,2.661333939,-0.9382,-0.4421,-0.2727,9.6283,-19.5923,-55.0232
2.661686083,2.663978001,-0.9382,-0.4421,-0.2727,9.6283,-19.5923,-55.0232
2.664333006,2.666624924,-0.9382,-0.4421,-0.2727,9.6283,-19.5923,-55.0232
2.666980883,2.669274946,-0.9382,-0.4421,-0.2727,10.0861,-18.4479,-53.772
2.669630905,2.672008892,-0.9382,-0.4421,-0.2727,10.0861,-18.4479,-53.772
2.672366997,2.674665114,-0.9382,-0.4421,-0.2727,10.0861,-18.4479,-53.772
2.675024887,2.67731609,-0.9805,-0.4744,-0.248,10.0861,-18.4479,-53.772
2.67767491,2.67996802,-0.9805,-0.4744,-0.248,14.2822,-18.7836,-51.0864
2.680325886,2.682660004,-0.9805,-0.4744,-0.248,14.2822,-18.7836,-51.0864
2.683016917,2.685308119,-0.9805,-0.4744,-0.248,14.2822,-18.7836,-51.0864
2.685664078,2.687951943,-0.9805,-0.4744,-0.248,14.2822,-18.7836,-51.0864
2.688307902,2.690590998,-0.9805,-0.4744,-0.248,14.5416,-16.3116,-48.9197
2.691104075,2.693561932,-0.9805,-0.4744,-0.248,14.5416,-16.3116,-48.9197
2.69392099,2.696210047,-0.9805,-0.4744,-0.3105,14.5416,-16.3116,-48.9197
2.69656696,2.701898953,-0.9639,-0.4082,-0.2881,12.2223,-16.3116,-51.1169
2.702937027,2.705710074,-0.9639,-0.4082,-0.2881,12.2223,-16.3116,-51.1169
2.706071039,2.708371064,-0.9639,-0.4082,-0.2881,12.2223,-16.3116,-51.1169
2.70872893,2.711016079,-0.9639,-0.4082,-0.2881,12.2223,-16.3116,-51.1169
2.711486956,2.713784119,-0.9639,-0.4082,-0.2881,11.5967,-15.9454,-53.9551
2.714141032,2.716432949,-0.9639,-0.4082,-0.2678,11.5967,-15.9454,-53.9551
2.7167901,2.719082972,-0.9602,-0.4172,-0.2678,11.5967,-15.9454,-53.9551
2.719439884,2.721736094,-0.9602,-0.4172,-0.2678,11.5967,-15.9454,-53.9551
2.722093006,2.724384924,-0.9602,-0.4172,-0.2678,11.7645,-16.3879,-55.9845
2.724740883,2.727028986,-0.9602,-0.4172,-0.2678,11.7645,-16.3879,-55.9845
2.727384945,2.729684016,-0.9602,-0.4172,-0.2678,11.7645,-16.3879,-55.9845
2.730039021,2.732334038,-0.9602,-0.4172,-0.2678,11.7645,-16.3879,-55.9845
2.732689997,2.734989067,-0.9602,-0.4172,-0.2678,13.2904,-15.976,-54.306
2.73534598,2.737632891,-0.9597,-0.5823,-0.2688,13.2904,-15.976,-54.306
2.737990042,2.740282913,-0.9597,-0.5823,-0.2688,13.2904,-15.976,-54.306
2.740640065,2.743051907,-0.9597,-0.5823,-0.2688,13.2904,-15.976,-54.306
2.743410012,2.745698115,-0.9597,-0.5823,-0.2688,14.4806,-16.8762,-49.3317
2.746054074,2.748341938,-0.9597,-0.5823,-0.2688,14.4806,-16.8762,-49.3317
2.748699089,2.75099506,-0.9597,-0.5823,-0.2688,14.4806,-16.8762,-49.3317
2.751351973,2.753742119,-0.9597,-0.5823,-0.2688,14.4806,-16.8762,-49.3317
2.754098078,2.756395956,-0.9597,-0.5823,-0.2063,13.8397,-17.2882,-45.8374
2.756753107,2.759044071,-0.927,-0.5776,-0.2283,13.8397,-17.2882,-45.8374
2.759402891,2.761804005,-0.927,-0.5776,-0.2283,13.8397,-17.2882,-45.8374
2.762159964,2.764461895,-0.927,-0.5776,-0.2283,13.8397,-17.2882,-45.8374
2.764819046,2.767103096,-0.927,-0.5776,-0.2283,11.4746,-16.4185,-43.8995
2.767460963,2.769750973,-0.927,-0.5776,-0.2283,11.4746,-16.4185,-43.8995
2.770107886,2.772442957,-0.927,-0.5776,-0.2283,11.4746,-16.4185,-43.8995
2.772798916,2.775087019,-0.927,-0.5776,-0.2283,11.4746,-16.4185,-43.8995
2.775444886,2.777738949,-0.981,-0.574,-0.2285,11.4594,-17.0898,-42.1753
2.778098007,2.780383965,-0.981,-0.574,-0.2285,11.4594,-17.0898,-42.1753
2.78074207,2.783151051,-0.981,-0.574,-0.2285,11.4594,-17.0898,-42.1753
2.78351607,2.785941979,-0.981,-0.574,-0.2285,11.4594,-17.0898,-42.1753
2.786306998,2.788735052,-0.981,-0.574,-0.2285,13.6719,-16.6779,-39.7491
2.789101025,2.791530033,-0.981,-0.574,-0.2285,13.6719,-16.6779,-39.7491
2.791890045,2.794285914,-0.981,-0.574,-0.2285,13.6719,-16.6779,-39.7491
2.794644972,2.796940943,-0.981,-0.574,-0.2124,13.6719,-16.6779,-39.7491
2.797298094,2.799594065,-0.9695,-0.5718,-0.2124,13.2294,-17.2272,-39.0625
2.799950978,2.802441021,-0.9695,-0.5718,-0.2124,13.2294,-17.2272,-39.0625
2.802806994,2.805189987,-0.9695,-0.5718,-0.2124,13.2294,-17.2272,-39.0625
2.805551907,2.809111019,-0.9695,-0.5718,-0.2124,13.2294,-17.2272,-50.7812
2.809472939,2.811777016,-0.9695,-0.5718,-0.2124,16.2354,-16.9525,-46.8903
2.812132975,2.814433953,-0.9695,-0.5718,-0.2124,16.2354,-16.9525,-46.8903
2.814789912,2.817077061,-0.9695,-0.5093,-0.1987,16.2354,-16.9525,-46.8903
2.817433974,2.819719931,-0.8748,-0.5229,-0.1987,16.2354,-16.9525,-46.8903
2.820074936,2.822444102,-0.8748,-0.5229,-0.1987,18.692,-18.3411,-46.7224
2.822801014,2.825091025,-0.8748,-0.5229,-0.1987,18.692,-18.3411,-46.7224
2.825448891,2.827743908,-0.8748,-0.5229,-0.1987,18.692,-18.3411,-46.7224
2.82821097,2.830509087,-0.8748,-0.5229,-0.1987,18.692,-18.3411,-46.7224
2.830866,2.833201071,-0.8748,-0.5229,-0.1987,20.0653,-17.9138,-47.1802
2.83355703,2.835852047,-0.8748,-0.5229,-0.1987,20.0653,-17.9138,-47.1802
2.836208006,2.838503023,-0.9019,-0.6094,-0.1855,20.0653,-17.9138,-47.1802
2.838862082,2.841154,-0.9019,-0.6094,-0.1855,20.0653,-17.9138,-47.1802
2.841515919,2.843809029,-0.9019,-0.6094,-0.1855,20.4315,-17.5781,-46.6309
2.844166895,2.846459051,-0.9019,-0.6094,-0.1855,20.4315,-17.5781,-46.6309
2.846815964,2.849110028,-0.9019,-0.6094,-0.1855,20.4315,-17.5781,-46.6309
2.849465033,2.851829907,-0.9019,-0.6094,-0.1855,20.4315,-17.5781,-46.6309
2.852187058,2.854480883,-0.9019,-0.6094,-0.1855,25.4364,-15.5792,-44.6777
2.854838034,2.857134959,-0.9019,-0.6094,-0.2014,25.4364,-15.5792,-44.6777
2.857490917,2.859780928,-0.9949,-0.5559,-0.2014,25.4364,-15.5792,-44.6777
2.860138079,2.862573048,-0.9949,-0.5559,-0.2014,25.4364,-15.5792,-44.6777
2.862929961,2.865225931,-0.9949,-0.5559,-0.2014,28.3508,-15.3503,-42.6331
2.86558189,2.86786904,-0.9949,-0.5559,-0.2014,28.3508,-15.3503,-42.6331
2.868225952,2.870514056,-0.9949,-0.5559,-0.2014,28.3508,-15.3503,-42.6331
2.870870968,2.873207947,-0.9949,-0.5559,-0.2014,28.3508,-15.3503,-42.6331
2.873565098,2.875858923,-0.9949,-0.5559,-0.2014,27.6337,-15.4572,-42.8925
2.876217028,2.878511092,-0.9087,-0.675,-0.1313,27.6337,-15.4572,-42.8925
2.878868004,2.881163021,-0.9087,-0.675,-0.1313,27.6337,-15.4572,-42.8925
2.881585022,2.883891007,-0.9087,-0.675,-0.1313,27.6337,-15.4572,-42.8925
2.884249111,2.886545082,-0.9087,-0.675,-0.1313,25.8179,-14.8468,-40.8936
2.886901041,2.889190098,-0.9087,-0.675,-0.1313,25.8179,-14.8468,-40.8936
2.889547011,2.891885897,-0.9087,-0.675,-0.1313,25.8179,-14.8468,-40.8936
2.892243048,2.894532105,-0.9087,-0.675,-0.1313,25.8179,-14.8468,-40.8936
2.894889971,2.897175928,-0.9087,-0.675,-0.1021,25.8179,-13.6414,-37.6434
2.897534033,2.899917027,-0.823,-0.7349,-0.1021,23.8495,-13.6414,-37.6434
2.900277039,2.902760884,-0.823,-0.7349,-0.1021,23.8495,-13.6414,-37.6434
2.903120896,2.905408999,-0.823,-0.7349,-0.1021,23.8495,-13.6414,-37.6434
2.905767103,2.909196039,-0.823,-0.7349,-0.1021,19.9432,-11.7645,-33.5083
2.909557959,2.912399908,-0.823,-0.7349,-0.1021,22.0947,-11.7645,-33.5083
2.912762066,2.915058037,-0.823,-0.7349,-0.1021,22.0947,-11.7645,-33.5083
2.915417095,2.917707106,-0.823,-0.6799,-0.05,22.0947,-11.7645,-33.5083
2.918064972,2.920354983,-0.8037,-0.6799,-0.05,19.6686,-10.1166,-29.9835
2.920714041,2.923030039,-0.8037,-0.6799,-0.05,19.6686,-10.1166,-29.9835
2.923387905,2.925676962,-0.8037,-0.6799,-0.05,19.6686,-10.1166,-29.9835
2.926034113,2.928330084,-0.8037,-0.6799,-0.05,19.6686,-10.1166,-29.9835
2.928688904,2.930982968,-0.8037,-0.6799,-0.05,15.8234,-6.6071,-28.2288
2.931337973,2.93363609,-0.8037,-0.6799,-0.05,15.8234,-6.6071,-28.2288
2.933992049,2.936283013,-0.8037,-0.6799,-0.05,15.8234,-6.6071,-28.2288
2.936638018,2.938929936,-0.8384,-0.615,-0.0544,15.8234,-6.6071,-28.2288
2.939285895,2.941580912,-0.8384,-0.615,-0.0544,11.0016,-4.9744,-22.8882
2.942046067,2.944339892,-0.8384,-0.615,-0.0544,11.0016,-4.9744,-22.8882
2.944696089,2.946983954,-0.8384,-0.615,-0.0544,11.0016,-4.9744,-22.8882
2.947341105,2.949631115,-0.8384,-0.615,-0.0544,11.0016,-4.9744,-22.8882
2.949987074,2.952397963,-0.8384,-0.615,-0.0544,8.9111,-1.5106,-19.7449
2.952752014,2.955046078,-0.8384,-0.615,-0.0544,8.9111,-1.5106,-19.7449
2.955399891,2.957697054,-0.8384,-0.6775,-0.1221,8.9111,-1.5106,-19.7449
2.958049914,2.96034207,-0.8953,-0.677,-0.1221,8.9111,-1.5106,-19.7449
2.960695883,2.963143011,-0.8953,-0.677,-0.1221,4.303,0.6866,-12.1918
2.963498017,2.965790888,-0.8953,-0.677,-0.1221,4.303,0.6866,-12.1918
2.966143986,2.968430897,-0.8953,-0.677,-0.1221,4.303,0.6866,-12.1918
2.968785902,2.971075913,-0.8953,-0.677,-0.1221,4.303,0.6866,-12.1918
2.971563002,2.97385492,-0.8953,-0.677,-0.1221,3.5553,4.8218,-6.6986
2.974203011,2.976493021,-0.8953,-0.677,-0.1221,3.5553,4.8218,-6.6986
2.976842066,2.97913303,-0.9207,-0.8425,-0.1992,3.5553,4.8218,-6.6986
2.979482075,2.981773993,-0.9207,-0.8425,-0.1992,3.5553,4.8218,-6.6986
2.982122084,2.984413048,-0.9207,-0.8425,-0.1992,3.5553,9.6588,2.7924
2.984762093,2.987054011,-0.9207,-0.8425,-0.1992,2.0447,9.6588,2.7924
2.987402102,2.989692112,-0.9207,-0.8425,-0.1992,2.0447,9.6588,2.7924
2.990039965,2.992396017,-0.9207,-0.8425,-0.1992,2.0447,9.6588,2.7924
2.992751976,2.995169064,-0.9207,-0.8425,-0.1992,2.0447,12.1765,14.3585
2.99553599,2.997955939,-0.9207,-0.905,-0.1743,7.4768,12.1765,14.3585
2.998318096,3.000740906,-0.8865,-0.9333,-0.1743,7.4768,12.1765,14.3585
3.00110211,3.003580948,-0.8865,-0.9333,-0.1743,7.4768,12.1765,14.3585
3.003935953,3.006230971,-0.8865,-0.9333,-0.1743,15.2893,16.098,26.2299
3.006590029,3.008886954,-0.8865,-0.9333,-0.1743,12.1307,16.098,26.2299
3.009246012,3.011604925,-0.8865,-0.9333,-0.1743,12.1307,16.098,26.2299
3.011982104,3.014381071,-0.8865,-0.9333,-0.1743,12.1307,16.098,26.2299
3.014744898,3.018546959,-0.8865,-0.9333,-0.1743,16.037,19.928,48.3246
3.018922945,3.021225115,-1.064,-0.9836,-0.0527,16.1743,19.928,48.3246
3.021583935,3.023874899,-1.064,-0.9836,-0.0527,16.1743,19.928,48.3246
3.024233004,3.026523014,-1.064,-0.9836,-0.0527,16.1743,19.928,48.3246
3.026882073,3.02917709,-1.064,-0.9836,-0.0527,19.5312,21.8811,70.1447
3.02953591,3.031877896,-1.064,-0.9836,-0.0527,19.5312,21.8811,70.1447
3.032237908,3.034535071,-1.064,-0.9836,-0.0527,19.5312,21.8811,70.1447
3.034891983,3.037183901,-1.064,-0.9836,-0.0527,19.5312,21.8811,70.1447
3.037542006,3.039831063,-1.4004,-0.9919,-0.0134,10.8948,24.0784,88.0127
3.040188929,3.042569062,-1.4004,-0.9919,-0.0134,10.8948,24.0784,88.0127
3.042936941,3.045358082,-1.4004,-0.9919,-0.0134,10.8948,24.0784,88.0127
3.045724055,3.048140904,-1.4004,-0.9919,-0.0134,10.8948,24.0784,88.0127
3.048508068,3.050933977,-1.4004,-0.9919,-0.0134,8.5602,23.2239,98.999
3.051297089,3.053613087,-1.4004,-0.9919,-0.0134,8.5602,23.2239,98.999
3.05397,3.056270024,-1.4004,-0.9919,-0.0134,8.5602,23.2239,98.999
3.056625983,3.058919092,-1.4165,-1.0247,0.1113,8.5602,23.2239,98.999
3.059411904,3.061878105,-1.4165,-1.0247,0.1113,11.322,22.2015,102.7069
3.062235018,3.06452789,-1.4165,-1.0247,0.1113,11.322,22.2015,102.7069
3.064885994,3.067181011,-1.4165,-1.0247,0.1113,11.322,22.2015,102.7069
3.067537924,3.069826027,-1.4165,-1.0247,0.1113,11.322,22.2015,102.7069
3.070183893,3.072627922,-1.4165,-1.0247,0.1113,18.7988,23.2391,123.0927
3.072986027,3.075281044,-1.4165,-1.0247,0.1113,18.7988,23.2391,123.0927
3.075640103,3.077937981,-1.4165,-1.0247,-0.042,18.7988,23.2391,123.0927
3.078294894,3.08058395,-1.7227,-0.7117,-0.042,18.7988,23.2391,123.0927
3.080943009,3.083240887,-1.7227,-0.7117,-0.042,22.3999,23.9868,134.6436
3.083598992,3.085897108,-1.7227,-0.7117,-0.042,22.3999,23.9868,134.6436
3.086255928,3.088544031,-1.7227,-0.7117,-0.042,22.3999,23.9868,134.6436
3.088900944,3.091188093,-1.7227,-0.7117,-0.042,22.3999,23.9868,134.6436
3.091620108,3.093941113,-1.7227,-0.7117,-0.042,18.2495,26.1993,142.6392
3.094298025,3.09658899,-1.7227,-0.7117,-0.042,18.2495,26.1993,142.6392
3.096947094,3.099244973,-1.7805,-0.4431,-0.1865,18.2495,26.1993,142.6392
3.099600931,3.102097889,-1.7805,-0.4431,-0.1865,18.2495,26.1993,142.6392
3.102455994,3.104744097,-1.7805,-0.4431,-0.1865,15.7471,29.4495,140.0604
3.10510101,3.107386967,-1.7805,-0.4431,-0.1865,15.7471,29.4495,140.0604
3.107744118,3.110035082,-1.7805,-0.4431,-0.1865,15.7471,29.4495,140.0604
3.110391995,3.112810036,-1.7805,-0.4431,-0.1865,15.7471,29.4495,140.0604
3.113166949,3.115461966,-1.7805,-0.4431,-0.1865,14.6027,34.1797,138.916
3.115819117,3.120104929,-1.7805,-0.4431,-0.374,14.6027,34.1797,138.916
3.120468041,3.122826,-1.614,-0.1475,-0.374,14.6027,34.1797,138.916
3.123181959,3.125472924,-1.614,-0.1475,-0.374,14.6027,34.1797,138.7787
3.125831028,3.128126046,-1.614,-0.1475,-0.374,10.4828,39.5813,138.7787
3.128483912,3.130777022,-1.614,-0.1475,-0.374,10.4828,39.5813,138.7787
3.131132027,3.133431097,-1.614,-0.1475,-0.374,10.4828,39.5813,138.7787
3.13378801,3.136088034,-1.614,-0.1475,-0.374,10.4828,39.5813,138.7787
3.136447092,3.13873901,-1.614,-0.0906,-0.4463,-7.7515,40.1459,144.8364
3.139095923,3.14139094,-1.0933,-0.0906,-0.4463,-7.7515,40.1459,144.8364
3.141885897,3.144179961,-1.0933,-0.0906,-0.4463,-7.7515,40.1459,144.8364
3.144535919,3.146824023,-1.0933,-0.0906,-0.4463,-7.7515,40.1459,144.8364
3.147179028,3.149476906,-1.0933,-0.0906,-0.4463,-10.9711,29.0222,130.5389
3.149834057,3.152135035,-1.0933,-0.0906,-0.4463,-10.9711,29.0222,130.5389
3.152494093,3.154785057,-1.0933,-0.0906,-0.4463,-10.9711,29.0222,130.5389
3.155142924,3.15744104,-1.0933,-0.0906,-0.4463,-10.9711,29.0222,130.5389
3.157797953,3.160088917,-0.6091,-0.3188,-0.3445,-15.7471,17.7612,108.8409
3.160447022,3.162788054,-0.6091,-0.3188,-0.3445,-15.7471,17.7612,108.8409
3.16314592,3.165446898,-0.6091,-0.3188,-0.3445,-15.7471,17.7612,108.8409
3.165804049,3.168093106,-0.6091,-0.3188,-0.3445,-15.7471,17.7612,108.8409
3.168450972,3.170744082,-0.6091,-0.3188,-0.3445,-12.6038,7.0801,90.0726
3.171101948,3.173511883,-0.6091,-0.3188,-0.3445,-12.6038,7.0801,90.0726
3.173869034,3.176159998,-0.6091,-0.3188,-0.3445,-12.6038,7.0801,90.0726
3.176633021,3.178933045,-0.6091,-0.7161,-0.2625,-12.6038,7.0801,90.0726
3.17928805,3.181583067,-0.5469,-0.7161,-0.2625,-8.6517,-0.1984,70.4041
3.181939026,3.18422999,-0.5469,-0.7161,-0.2625,-8.6517,-0.1984,70.4041
3.184584996,3.186879059,-0.5469,-0.7161,-0.2625,-8.6517,-0.1984,70.4041
3.187233111,3.189522883,-0.5469,-0.7161,-0.2625,-8.6517,-0.1984,70.4041
3.189877888,3.192249914,-0.5469,-0.7161,-0.2625,-3.4485,-3.7537,49.1791
3.192603012,3.19489803,-0.5469,-0.7161,-0.2625,-3.4485,-3.7537,49.1791
3.195248982,3.197548052,-0.5469,-0.7161,-0.2625,-3.4485,-3.7537,49.1791
3.197899958,3.200195929,-0.3438,-0.9739,-0.7402,-3.4485,-3.7537,49.1791
3.200549027,3.202858111,-0.3438,-0.9739,-0.7402,-2.8839,-0.2594,22.6288
3.20321097,3.205495974,-0.3438,-0.9739,-0.7402,-2.8839,-0.2594,22.6288
3.205850025,3.20824494,-0.3438,-0.9739,-0.7402,-2.8839,-0.2594,22.6288
3.208598038,3.210892102,-0.3438,-0.9739,-0.7402,-2.8839,-0.2594,22.6288
3.211244007,3.213740011,-0.3438,-0.9739,-0.7402,-3.0212,4.2267,4.7913
3.214089056,3.21638002,-0.3438,-0.9739,-0.7402,-3.0212,4.2267,4.7913
3.218758007,3.221058985,-0.3704,-0.3979,-0.3535,-3.0212,4.2267,4.7913
3.221409937,3.223750969,-0.3704,-0.3979,-0.3535,-3.0212,4.2267,-10.5591
3.224103113,3.226391932,-0.3704,-0.3979,-0.3535,-0.885,2.2888,-10.5591
3.226745983,3.229036948,-0.3704,-0.3979,-0.3535,-0.885,2.2888,-10.5591
3.229390045,3.231713911,-0.3704,-0.3979,-0.3535,-0.885,2.2888,-10.5591
3.232066056,3.234367987,-0.3704,-0.3979,-0.3535,-0.885,2.2888,-26.1841
3.234719893,3.237009903,-0.3704,-0.3979,-0.3535,1.7853,-2.0752,-23.8647
3.237362047,3.239651104,-0.2302,-0.1445,-0.1187,1.7853,-2.0752,-23.8647
3.240003964,3.242307087,-0.2302,-0.1445,-0.1187,1.7853,-2.0752,-23.8647
3.2426609,3.24495401,-0.2302,-0.1445,-0.1187,1.7853,-2.0752,-23.8647
3.245307108,3.247597119,-0.2302,-0.1445,-0.1187,5.4932,-6.4697,-30.6244
3.247948071,3.250249049,-0.2302,-0.1445,-0.1187,5.4932,-6.4697,-30.6244
3.250601908,3.252905985,-0.2302,-0.1445,-0.1187,5.4932,-6.4697,-30.6244
3.253257891,3.255552908,-0.2302,-0.1445,-0.1187,5.4932,-6.4697,-30.6244
3.255904099,3.258194109,-0.2302,-0.1445,-0.1187,11.6119,-9.7046,-32.1045
3.258551976,3.260841986,-0.1306,0.1768,0.0544,11.6119,-9.7046,-32.1045
3.261198899,3.263529917,-0.1306,0.1768,0.0544,11.6119,-9.7046,-32.1045
3.263887068,3.266178032,-0.1306,0.1768,0.0544,11.6119,-9.7046,-32.1045
3.266534945,3.268824002,-0.1306,0.1768,0.0544,8.3771,-9.0942,-31.601
3.269178053,3.271619936,-0.1306,0.1768,0.0544,8.3771,-9.0942,-31.601
3.271973034,3.274267098,-0.1306,0.1768,0.0544,8.3771,-9.0942,-31.601
3.274622103,3.276919028,-0.1306,0.1768,0.0544,8.3771,-9.0942,-31.601
3.277274987,3.279561898,-0.1709,0.3464,-0.0391,-13.9313,-9.14,-31.4636
3.279918095,3.282250067,-0.1709,0.3464,-0.0391,-13.9313,-9.14,-31.4636
3.282606026,3.284902951,-0.1709,0.3464,-0.0391,-13.9313,-9.14,-31.4636
3.28525891,3.287551066,-0.1709,0.3464,-0.0391,-13.9313,-9.14,-31.4636
3.287907025,3.290197989,-0.1709,0.3464,-0.0391,-41.6718,-9.7656,-32.6691
3.290669104,3.293004891,-0.1709,0.3464,-0.0391,-41.6718,-9.7656,-32.6691
3.293362042,3.295653006,-0.1709,0.3464,-0.0391,-41.6718,-9.7656,-32.6691
3.296009918,3.298302075,-0.1709,0.3464,-0.0391,-41.6718,-9.7656,-32.6691
3.298658034,3.300948998,-0.2124,0.1926,-0.0718,-64.3921,-8.606,-33.6761
3.301304003,3.303624054,-0.2124,0.1926,-0.0718,-64.3921,-8.606,-33.6761
3.303980013,3.306476017,-0.2124,0.1926,-0.0718,-64.3921,-8.606,-33.6761
3.306836983,3.309125086,-0.2124,0.1926,-0.0718,-64.3921,-8.606,-33.6761
3.309481999,3.311892887,-0.2124,0.1926,-0.0718,-73.0743,-7.7057,-33.9508
3.312250038,3.314546009,-0.2124,0.1926,-0.0718,-73.0743,-7.7057,-33.9508
3.314901015,3.318579098,-0.2124,0.1926,-0.0718,-73.0743,-7.7057,-33.9508
3.31893911,3.321236035,-0.2275,0.0933,-0.1609,-73.0743,-7.7057,-33.9508
3.321591994,3.323882004,-0.2275,0.0933,-0.1609,-67.5201,-7.309,-34.0118
3.324237963,3.32653298,-0.2275,0.0933,-0.1609,-67.5201,-7.309,-34.0118
3.326891085,3.329177996,-0.2275,0.0933,-0.1609,-67.5201,-7.309,-34.0118
3.329536101,3.331879994,-0.2275,0.0933,-0.1609,-67.5201,-7.309,-34.0118
3.332238098,3.334531924,-0.2275,0.0933,-0.1609,-54.8553,-6.6223,-34.3933
3.334885021,3.337177893,-0.2275,0.0933,-0.1609,-54.8553,-6.6223,-34.3933
3.337532898,3.339824101,-0.2024,0.0466,-0.1836,-54.8553,-6.6223,-34.3933
3.340177914,3.342509886,-0.2024,0.0466,-0.1836,-54.8553,-6.6223,-34.3933
3.342866083,3.345156094,-0.2024,0.0466,-0.1836,-41.5344,-5.8746,-35.7971
3.345511099,3.347803017,-0.2024,0.0466,-0.1836,-41.5344,-5.8746,-35.7971
3.348160883,3.350454947,-0.2024,0.0466,-0.1836,-41.5344,-5.8746,-35.7971
3.350808998,3.35311093,-0.2024,0.0466,-0.1836,-41.5344,-5.8746,-35.7971
3.353465935,3.355765005,-0.2024,0.0466,-0.1836,-26.7944,-6.7596,-37.1399
3.356120964,3.358415028,-0.2024,0.0466,-0.1836,-26.7944,-6.7596,-37.1399
3.358770987,3.361060997,-0.217,0.0295,-0.1704,-26.7944,-6.7596,-37.1399
3.361416003,3.363871952,-0.217,0.0295,-0.1704,-26.7944,-6.7596,-37.1399
3.364230057,3.366523882,-0.217,0.0295,-0.1704,-10.9253,-8.6212,-39.7339
3.36688008,3.369182011,-0.217,0.0295,-0.1704,-10.9253,-8.6212,-39.7339
3.369537016,3.371982952,-0.217,0.0295,-0.1704,-10.9253,-8.6212,-39.7339
3.372338911,3.374627968,-0.217,0.0295,-0.1704,-10.9253,-8.6212,-39.7339
3.374983927,3.377278944,-0.217,0.0295,-0.1704,19.043,-7.8125,-63.9343
3.377634903,3.379919907,-0.092,-3.3303,-0.5962,19.043,-7.8125,-63.9343
3.380278012,3.382647892,-0.074,-3.3303,-0.5962,19.043,-7.8125,-63.9343
3.383005997,3.385300061,-0.074,-3.3303,-0.5962,19.043,-7.8125,-63.9343
3.385655066,3.387945076,-0.074,-3.3303,-0.5962,-13.5803,-0.2136,-158.0048
3.388301989,3.390590092,-0.074,-3.3303,-0.5962,-13.5803,-0.2136,-158.0048
3.390946051,3.393242976,-0.074,-3.3303,-0.5962,-13.5803,-0.2136,-158.0048
3.393598934,3.395889899,-0.074,-3.3303,-0.5962,-13.5803,-0.2136,-158.0048
3.396246096,3.398543021,-0.074,-3.3303,-0.5962,-13.5803,-43.9911,-186.4319
3.398902079,3.401189944,-1.8308,-0.0593,0.6538,-57.0374,-43.9911,-186.4319
3.401544949,3.40384092,-1.8308,-0.0593,0.6538,-57.0374,-43.9911,-186.4319
3.404199024,3.406496903,-1.8308,-0.0593,0.6538,-57.0374,-43.9911,-186.4319
3.407146117,3.409434935,-1.8308,-0.0593,0.6538,-57.0374,-22.8424,-79.7424
3.409792086,3.41219606,-1.8308,-0.0593,0.6538,188.1714,-22.8424,-79.7424
3.412556073,3.414847037,-1.8308,-0.0593,0.6538,188.1714,-22.8424,-79.7424
3.415203949,3.418309113,-1.8308,-0.0593,0.6538,188.1714,-22.8424,-79.7424
3.418671032,3.420961996,-0.9302,1.5142,-0.6187,167.16,0.7019,-93.0023
3.421318909,3.423617026,-0.9302,1.5142,-0.6187,167.16,0.7019,-93.0023
3.423974892,3.426263949,-0.9302,1.5142,-0.6187,167.16,0.7019,-93.0023
3.426622053,3.428913018,-0.9302,1.5142,-0.6187,167.16,0.7019,-93.0023
3.429268976,3.431559941,-0.9302,1.5142,-0.6187,29.9225,-1.709,-111.496
3.431914946,3.434209009,-0.9302,1.5142,-0.6187,29.9225,-1.709,-111.496
3.434564968,3.436859032,-0.9302,1.5142,-0.6187,29.9225,-1.709,-111.496
3.437213084,3.439504048,-0.9302,1.5142,-0.8193,29.9225,-1.709,-111.496
3.439858099,3.442156931,-1.8748,-0.1638,-0.8193,29.9225,-3.3264,-133.1787
3.442514082,3.444805046,-1.8748,-0.1638,-0.8193,-56.4423,-3.3264,-133.1787
3.445161005,3.447455069,-1.8748,-0.1638,-0.8193,-56.4423,-3.3264,-133.1787
3.447807928,3.450096031,-1.8748,-0.1638,-0.8193,-56.4423,-3.3264,-133.1787
3.450450083,3.452782055,-1.8748,-0.1638,-0.8193,-56.4423,-7.2327,-116.8823
3.453136107,3.45560207,-1.8748,-0.1638,-0.8193,-62.0422,-5.4321,-116.8823
3.455957075,3.45824804,-1.8748,-0.1638,-0.8193,-62.0422,-5.4321,-116.8823
3.458604952,3.460897108,-2.6057,-0.8608,-0.366,-62.0422,-5.4321,-116.8823
3.461254021,3.463611981,-2.6057,-0.8608,-0.366,-62.0422,-5.4321,-104.8279
3.463966986,3.466719052,-2.6057,-0.8608,-0.366,-43.7012,-1.2207,-104.8279
3.46707811,3.469369074,-2.6057,-0.8608,-0.366,-43.7012,-1.2207,-104.8279
3.469724079,3.472061058,-2.6057,-0.8608,-0.366,-43.7012,-1.2207,-104.8279
3.472416064,3.474706074,-2.6057,-0.8608,-0.366,-43.7012,-1.2207,-103.6682
3.475062033,3.477352997,-2.6057,-0.8608,-0.366,-8.316,-3.6926,-103.6682
3.477704903,3.479996105,-2.6057,-0.9233,0.4548,-8.316,-3.6926,-103.6682
3.480348011,3.482685944,-3.3931,-0.9233,0.4548,-8.316,-3.6926,-103.6682
3.483038088,3.485326906,-3.3931,-0.9233,0.4548,-8.316,-3.6926,-104.2938
3.485679051,3.487968108,-3.3931,-0.9233,0.4548,22.7051,-15.6708,-104.2938
3.488325974,3.490615031,-3.3931,-0.9233,0.4548,22.7051,-15.6708,-104.2938
3.490971943,3.493267914,-3.3931,-0.9233,0.4548,22.7051,-15.6708,-104.2938
3.493626972,3.495915076,-3.3931,-0.9233,0.4548,22.7051,-15.6708,-112.1063
3.496273896,3.498567959,-3.3931,-0.9233,0.4548,36.026,-26.1078,-111.7096
3.49892511,3.501217982,-1.0986,-0.6877,-0.0359,36.026,-26.1078,-111.7096
3.501574894,3.503866097,-1.0986,-0.6877,-0.0359,36.026,-26.1078,-111.7096
3.504223963,3.50651302,-1.0986,-0.6877,-0.0359,36.026,-26.1078,-111.7096
3.506872078,3.509759089,-1.0986,-0.6877,-0.0359,15.625,-27.8473,-103.6987
3.510121008,3.513065001,-1.0986,-0.6877,-0.0359,15.625,-27.8473,-103.6987
3.513425967,3.516262909,-1.0986,-0.6877,-0.0359,15.625,-27.8473,-103.6987
3.516624113,3.519874951,-1.0986,-0.6877,-0.0984,-11.0779,-27.298,-86.5784
3.520237109,3.523128887,-0.115,-1.127,-0.0798,-11.0779,-27.298,-86.5784
3.523620983,3.527598044,-0.115,-1.127,-0.0798,-11.0779,-27.298,-86.5784
3.527959963,3.530913969,-0.115,-1.127,-0.0798,-16.1743,-17.8223,-59.433
3.531275889,3.533605953,-0.115,-1.127,-0.0798,-16.1743,-17.8223,-59.433
3.533963105,3.536255022,-0.115,-1.127,-0.0798,-16.1743,-17.8223,-59.433
3.536610981,3.538901945,-0.115,-1.127,-0.0798,-16.1743,-17.8223,-59.433
3.53926005,3.541550061,-0.125,-1.1414,0.0869,-4.8981,-7.9041,-31.0974
3.541904112,3.544197937,-0.125,-1.1414,0.0869,-4.8981,-7.9041,-31.0974
3.544550082,3.5468389,-0.125,-1.1414,0.0869,-4.8981,-7.9041,-31.0974
3.547192951,3.549477955,-0.125,-1.1414,0.0869,-4.8981,-7.9041,-31.0974
3.549830099,3.552127024,-0.125,-1.1414,0.0869,5.6458,-1.8158,-3.479
3.552475115,3.554767033,-0.125,-1.1414,0.0869,5.6458,-1.8158,-3.479
3.555112978,3.557404896,-0.125,-1.1414,0.0869,5.6458,-1.8158,-3.479
3.557752034,3.560042998,-0.125,-1.1414,-0.1162,5.6458,-1.8158,-3.479
3.560391089,3.562812945,-0.5371,-0.874,-0.1162,4.8981,1.1139,16.8457
3.563166043,3.565458914,-0.5371,-0.874,-0.1162,4.8981,1.1139,16.8457
3.565812966,3.568104883,-0.5371,-0.874,-0.1162,4.8981,1.1139,16.8457
3.568457028,3.570752999,-0.5371,-0.874,-0.1162,4.8981,1.1139,16.8457
3.571106097,3.57353892,-0.5371,-0.874,-0.1162,-0.5188,4.837,29.6173
3.573892971,3.576182028,-0.5371,-0.874,-0.1162,-0.5188,4.837,29.6173
3.576537033,3.57882609,-0.5371,-0.874,-0.1162,-0.5188,4.837,29.6173
3.579181095,3.581605097,-1.0554,-0.8479,-0.1919,-0.5188,4.837,29.6173
3.581957003,3.584251066,-1.0554,-0.8479,-0.1919,-1.8158,8.194,41.7786
3.584603926,3.586899897,-1.0554,-0.8479,-0.1919,-1.8158,8.194,41.7786
3.587252041,3.589544913,-1.0554,-0.8479,-0.1919,-1.8158,8.194,41.7786
3.589896103,3.592254063,-1.0554,-0.8479,-0.1919,-1.8158,8.194,41.7786
3.592608115,3.594891926,-1.0554,-0.8479,-0.1919,-1.8158,8.9874,52.1545
3.595246931,3.597530981,-1.0554,-0.8479,-0.1919,-2.3193,8.9874,52.1545
3.597882887,3.600172898,-1.0554,-0.8479,-0.1731,-2.3193,8.9874,52.1545
3.600525996,3.60284104,-1.21,-0.7051,-0.1731,-2.3193,8.9874,52.1545
3.603193899,3.605488917,-1.21,-0.7051,-0.1731,-2.3193,8.9874,57.8003
3.605841061,3.608133932,-1.21,-0.7051,-0.1731,-3.9215,9.3079,57.8003
3.608484885,3.610779902,-1.21,-0.7051,-0.1731,-3.9215,9.3079,57.8003
3.611133953,3.613578936,-1.21,-0.7051,-0.1731,-3.9215,9.3079,57.8003
3.613933941,3.616222044,-1.21,-0.7051,-0.1731,-3.9215,9.3079,61.4471
3.616574904,3.618863007,-1.21,-0.7051,-0.1731,-6.8817,11.1389,61.4471
3.619218012,3.621689936,-1.0481,-0.7063,-0.136,-6.8817,11.1389,61.4471
3.622045895,3.624333998,-1.0481,-0.7063,-0.136,-6.8817,11.1389,61.4471
3.624689003,3.626979014,-1.0481,-0.7063,-0.136,-6.8817,11.1389,62.6678
3.629144093,3.63151898,-1.0481,-0.7063,-0.136,-11.4288,13.8245,62.6678
3.6318809,3.634169003,-1.0481,-0.7063,-0.136,-11.4288,13.8245,62.6678
3.634527108,3.636818072,-1.0481,-0.7063,-0.136,-11.4288,13.8245,62.6678
3.637174984,3.639461895,-1.0481,-0.7063,-0.136,-17.3035,13.4735,63.5834
3.639818093,3.64211907,-0.8899,-0.7493,-0.1208,-17.3035,13.4735,63.5834
3.642589947,3.644884011,-0.8899,-0.7493,-0.1208,-17.3035,13.4735,63.5834
3.645243069,3.647531887,-0.8899,-0.7493,-0.1208,-17.3035,13.4735,63.5834
3.647890946,3.650185009,-0.8899,-0.7493,-0.1208,-19.2413,12.8174,67.4286
3.650545021,3.652846953,-0.8899,-0.7493,-0.1208,-19.2413,12.8174,67.4286
3.653205057,3.655497929,-0.8899,-0.7493,-0.1208,-19.2413,12.8174,67.4286
3.655856034,3.658152958,-0.8899,-0.7493,-0.1208,-19.2413,12.8174,67.4286
3.658512017,3.660802027,-0.8899,-0.6794,-0.1433,-14.4043,13.2141,73.4863
3.661161085,3.663466116,-0.7756,-0.6794,-0.1433,-14.4043,13.2141,73.4863
3.663822075,3.666113993,-0.7756,-0.6794,-0.1433,-14.4043,13.2141,73.4863
3.666472098,3.668764015,-0.7756,-0.6794,-0.1433,-14.4043,13.2141,73.4863
3.669120928,3.671625992,-0.7756,-0.6794,-0.1433,-8.0719,14.6179,79.9255
3.671981951,3.674281975,-0.7756,-0.6794,-0.1433,-8.0719,14.6179,79.9255
3.674637934,3.676938912,-0.7756,-0.6794,-0.1433,-8.0719,14.6179,79.9255
3.677293917,3.679592034,-0.7756,-0.6794,-0.1433,-8.0719,14.6179,79.9255
3.679947039,3.682413002,-0.8708,-0.5508,-0.2046,-3.7537,15.9912,83.7097
3.682777067,3.685202023,-0.8708,-0.5508,-0.2046,-3.7537,15.9912,83.7097
3.685567042,3.687982937,-0.8708,-0.5508,-0.2046,-3.7537,15.9912,83.7097
3.688345095,3.690766951,-0.8708,-0.5508,-0.2046,-3.7537,15.9912,83.7097
3.69113197,3.693564078,-0.8708,-0.5508,-0.2046,0.0153,17.1051,83.7708
3.693927904,3.696345946,-0.8708,-0.5508,-0.2046,0.0153,17.1051,83.7708
3.696711918,3.699133059,-0.8708,-0.5508,-0.2046,0.0153,17.1051,83.7708
3.699498078,3.701913019,-0.9253,-0.5024,-0.2583,0.0153,17.1051,83.7708
3.702272078,3.704563996,-0.9253,-0.5024,-0.2583,3.6621,18.0664,81.9092
3.704919955,3.707218071,-0.9253,-0.5024,-0.2583,3.6621,18.0664,81.9092
3.707573077,3.709868094,-0.9253,-0.5024,-0.2583,3.6621,18.0664,81.9092
3.710225006,3.712587019,-0.9253,-0.5024,-0.2583,3.6621,18.0664,81.9092
3.712949892,3.71537294,-0.9253,-0.5024,-0.2583,7.0801,17.7612,79.1931
3.715737006,3.718164107,-0.9253,-0.5024,-0.2583,7.0801,17.7612,79.1931
3.718522927,3.72082009,-0.9253,-0.3774,-0.2568,7.0801,17.7612,79.1931
3.721177002,3.723656079,-0.8538,-0.3945,-0.2568,7.0801,17.7612,79.1931
3.724017998,3.726402899,-0.8538,-0.3945,-0.2568,9.4147,17.3187,76.5076
3.72793903,3.7302381,-0.8538,-0.3945,-0.2568,9.4147,17.3187,76.5076
3.730595967,3.732973954,-0.8538,-0.3945,-0.2568,9.4147,17.3187,76.5076
3.733329912,3.735623022,-0.8538,-0.3945,-0.2568,9.4147,17.3187,76.5076
3.735978981,3.738268038,-0.8538,-0.3945,-0.2568,8.194,16.2201,72.8455
3.738623997,3.740913054,-0.8538,-0.332,-0.2795,8.194,16.2201,72.8455
3.741269966,3.743610998,-0.7656,-0.3352,-0.2795,8.194,16.2201,72.8455
3.743966004,3.746259114,-0.7656,-0.3352,-0.2795,8.194,16.2201,72.8455
3.746615073,3.748903891,-0.7656,-0.3352,-0.2795,3.6163,15.2435,68.9087
3.749258896,3.751557967,-0.7656,-0.3352,-0.2795,3.6163,15.2435,68.9087
3.751912972,3.754206082,-0.7656,-0.3352,-0.2795,3.6163,15.2435,68.9087
3.754562994,3.756859919,-0.7656,-0.3352,-0.2795,3.6163,15.2435,68.9087
3.75721707,3.759505888,-0.7656,-0.3352,-0.2795,-1.77,12.6343,65.6433
3.759973904,3.762292048,-0.833,-0.3757,-0.2791,-1.77,12.6343,65.6433
3.76264896,3.764944931,-0.833,-0.3757,-0.2791,-1.77,12.6343,65.6433
3.765299937,3.767588993,-0.833,-0.3757,-0.2791,-1.77,12.6343,65.6433
3.767943999,3.770237109,-0.833,-0.3757,-0.2791,-4.1504,10.437,62.6068
3.770595928,3.772958895,-0.833,-0.3757,-0.2791,-4.1504,10.437,62.6068
3.773317953,3.775603911,-0.833,-0.3757,-0.2791,-4.1504,10.437,62.6068
3.775958916,3.778248926,-0.833,-0.3757,-0.2791,-4.1504,10.437,62.6068
3.778603932,3.780887982,-0.833,-0.3757,-0.3174,-3.7079,9.2621,58.7616
3.781242033,3.783701083,-0.9426,-0.3308,-0.3174,-3.7079,9.2621,58.7616
3.784053942,3.786353012,-0.9426,-0.3308,-0.3174,-3.7079,9.2621,58.7616
3.78670611,3.788997074,-0.9426,-0.3308,-0.3174,-3.7079,9.2621,58.7616
3.789350888,3.791684052,-0.9426,-0.3308,-0.3174,-2.1973,6.5308,54.8859
3.792035958,3.794331929,-0.9426,-0.3308,-0.3174,-2.1973,6.5308,54.8859
3.794684073,3.796974083,-0.9426,-0.3308,-0.3174,-2.1973,6.5308,54.8859
3.797325035,3.799620053,-0.9426,-0.3308,-0.3174,-2.1973,6.5308,54.8859
3.799971005,3.80230703,-1.0205,-0.1775,-0.3301,-3.1738,3.8757,49.3774
3.802661082,3.804953953,-1.0205,-0.1775,-0.3301,-3.1738,3.8757,49.3774
3.805304905,3.807601115,-1.0205,-0.1775,-0.3301,-3.1738,3.8757,49.3774
3.807953974,3.810240885,-1.0205,-0.1775,-0.3301,-3.1738,3.8757,49.3774
3.810592076,3.812889,-1.0205,-0.1775,-0.3301,-10.9863,1.3428,41.748
3.813244959,3.81554403,-1.0205,-0.1775,-0.3301,-8.4229,1.3428,41.748
3.815895935,3.818323036,-1.0205,-0.1775,-0.3301,-8.4229,1.3428,41.748
3.818677088,3.82096996,-1.0205,-0.1775,-0.2532,-8.4229,1.3428,41.748
3.821320912,3.8237349,-1.0276,-0.2271,-0.2532,-8.4229,-1.6632,34.6069
3.824089905,3.826379916,-1.0276,-0.2271,-0.2532,-15.5792,-1.6632,34.6069
3.829187056,3.832080981,-1.0276,-0.2271,-0.2532,-15.5792,-1.6632,34.6069
3.832439085,3.834725996,-1.0276,-0.2271,-0.2532,-23.3917,-3.8147,28.1219
3.835082909,3.837366959,-1.0276,-0.2271,-0.2532,-22.4762,-3.8147,28.1219
3.83772101,3.840006968,-1.0276,-0.2271,-0.2532,-22.4762,-3.8147,28.1219
3.840360066,3.842687985,-1.0256,-0.3167,-0.219,-22.4762,-3.8147,28.1219
3.84304299,3.845334908,-1.0256,-0.3167,-0.219,-22.4762,-7.7209,23.4985
3.845689913,3.847983977,-1.0256,-0.3167,-0.219,-24.9176,-5.2795,23.4985
3.848337075,3.8506309,-1.0256,-0.3167,-0.219,-24.9176,-5.2795,23.4985
3.850984951,3.853283068,-1.0256,-0.3167,-0.219,-24.9176,-5.2795,23.4985
3.853639027,3.855924984,-1.0256,-0.3167,-0.219,-24.9176,-5.2795,20.34
3.856280943,3.858573099,-1.0256,-0.3167,-0.219,-23.2391,-5.6,20.34
3.858926913,3.861219069,-1.0256,-0.3167,-0.2073,-23.2391,-5.6,20.34
3.861575028,3.863870045,-1.0325,-0.2407,-0.2073,-23.2391,-5.6,20.34
3.864224097,3.866515061,-1.0325,-0.2407,-0.2073,-23.2391,-5.6,20.34
3.866869112,3.869157931,-1.0325,-0.2407,-0.2073,-21.7285,-6.1188,17.2272
3.869511029,3.871968886,-1.0325,-0.2407,-0.2073,-21.7285,-6.1188,17.2272
3.872325083,3.874617001,-1.0325,-0.2407,-0.2073,-21.7285,-6.1188,17.2272
3.875084063,3.87737908,-1.0325,-0.2407,-0.2073,-21.7285,-6.1188,17.2272
3.877732893,3.880020043,-1.0325,-0.2407,-0.2073,-23.0255,-5.7831,13.4277
3.880375048,3.882805964,-1.104,-0.3474,-0.2405,-23.0255,-5.7831,13.4277
3.883160969,3.88545098,-1.104,-0.3474,-0.2405,-23.0255,-5.7831,13.4277
3.885806938,3.888096949,-1.104,-0.3474,-0.2405,-23.0255,-5.7831,13.4277
3.888451954,3.89074411,-1.104,-0.3474,-0.2405,-24.2004,-4.5013,10.8795
3.891099116,3.893421074,-1.104,-0.3474,-0.2405,-24.2004,-4.5013,10.8795
3.893776079,3.896063944,-1.104,-0.3474,-0.2405,-24.2004,-4.5013,10.8795
3.896417996,3.898708006,-1.104,-0.3474,-0.2405,-24.2004,-4.5013,10.8795
3.899062058,3.901358029,-1.104,-0.3474,-0.2605,-17.6086,-2.6245,10.6354
3.901766917,3.90405502,-1.1245,-0.3486,-0.2605,-17.6086,-2.6245,10.6354
3.904410025,3.906700035,-1.1245,-0.3486,-0.2605,-17.6086,-2.6245,10.6354
3.907055994,3.909351012,-1.1245,-0.3486,-0.2605,-17.6086,-2.6245,10.6354
3.909705063,3.912038943,-1.1245,-0.3486,-0.2605,-10.8032,-0.7172,10.1013
3.912392994,3.914688965,-1.1245,-0.3486,-0.2605,-10.8032,-0.7172,10.1013
3.91504397,3.917334935,-1.1245,-0.3486,-0.2605,-10.8032,-0.7172,10.1013
3.917688986,3.919980904,-1.1245,-0.3486,-0.2605,-10.8032,-0.7172,10.1013
3.920335909,3.922731062,-1.0864,-0.321,-0.2605,-6.4545,0.7782,8.9722
3.923088929,3.925510069,-1.0864,-0.321,-0.2605,-6.4545,0.7782,8.9722
3.925866028,3.928289076,-1.0864,-0.321,-0.2605,-6.4545,0.7782,8.9722
3.928644081,3.931070944,-1.0864,-0.321,-0.2605,-6.4545,0.7782,8.9722
3.931477925,3.933771035,-1.0864,-0.321,-0.2605,-4.6997,1.6022,7.7057
3.934117934,3.936417004,-1.0864,-0.321,-0.2605,-4.6997,1.6022,7.7057
3.936765095,3.939174076,-1.0864,-0.321,-0.2605,-4.6997,1.6022,7.7057
3.939521929,3.944531103,-1.0864,-0.321,-0.2798,-4.6997,1.6022,7.0801
3.944882056,3.947763106,-1.0591,-0.334,-0.2798,-2.0599,1.9226,7.0801
3.948110958,3.950409075,-1.0591,-0.334,-0.2798,-2.0599,1.9226,7.0801
3.950756928,3.953250071,-1.0591,-0.334,-0.2798,-2.0599,1.9226,7.0801
3.95359697,3.955892941,-1.0591,-0.334,-0.2798,0.8087,2.4109,7.0801
3.956240078,3.958537003,-1.0591,-0.334,-0.2798,0.8087,2.4109,7.0801
3.958883902,3.961175104,-1.0591,-0.334,-0.2798,0.8087,2.4109,7.0801
3.96152105,3.963819882,-1.1467,-0.2222,-0.2898,0.8087,2.4109,7.0801
3.964165112,3.966454884,-1.1467,-0.2222,-0.2898,0.6866,1.8921,7.0038
3.966802021,3.969094893,-1.1467,-0.2222,-0.2898,0.6866,1.8921,7.0038
3.969439884,3.971736094,-1.1467,-0.2222,-0.2898,0.6866,1.8921,7.0038
3.972083947,3.974371096,-1.1467,-0.2222,-0.2898,0.6866,1.8921,7.0038
3.974717041,3.977016112,-1.1467,-0.2222,-0.2898,-1.6327,0.885,4.3793
3.977363011,3.979649922,-1.1467,-0.2222,-0.2898,-1.6327,0.885,4.3793
3.979998966,3.982380053,-1.0842,-0.3091,-0.2783,-1.6327,0.885,4.3793
3.982726952,3.985022923,-1.082,-0.3091,-0.2783,-1.6327,0.885,4.3793
3.98537006,3.987659117,-1.082,-0.3091,-0.2783,-3.7079,0.5341,2.1362
3.98800697,3.990301987,-1.082,-0.3091,-0.2783,-3.7079,0.5341,2.1362
3.990650078,3.993146082,-1.082,-0.3091,-0.2783,-3.7079,0.5341,2.1362
3.993605992,3.995901009,-1.082,-0.3091,-0.2783,-3.7079,0.5341,2.1362
3.996247908,3.998545071,-1.082,-0.3091,-0.2783,-3.9825,0.351,2.0905
3.998891016,4.001186034,-1.082,-0.3091,-0.2783,-3.9825,0.351,2.0905
4.001633068,4.003940007,-1.0063,-0.3459,-0.2659,-3.9825,0.351,2.0905
4.004286906,4.00658693,-1.0063,-0.3459,-0.2659,-3.9825,0.351,2.0905
4.006934067,4.009226939,-1.0063,-0.3459,-0.2659,-0.0763,-0.061,2.4567
4.009579083,4.011918923,-1.0063,-0.3459,-0.2659,-2.2278,-0.061,2.4567
4.012276074,4.014698883,-1.0063,-0.3459,-0.2659,-2.2278,-0.061,2.4567
4.015056034,4.017474076,-1.0063,-0.3459,-0.2659,-2.2278,-0.061,2.4567
4.017827889,4.020249983,-1.0063,-0.3459,-0.2659,-2.2278,-0.9155,2.3041
4.020604035,4.023162981,-1.0261,-0.2859,-0.2629,-0.9613,-0.9155,2.3041
4.023511072,4.025804898,-1.0261,-0.2859,-0.2629,-0.9613,-0.9155,2.3041
4.026152989,4.029348036,-1.0261,-0.2859,-0.2629,-0.9613,-0.9155,2.3041
4.029698035,4.032095095,-1.0261,-0.2859,-0.2629,-1.9989,-1.4343,1.8311
4.03244104,4.034732958,-1.0261,-0.2859,-0.2629,-1.9989,-1.4343,1.8311
4.035078903,4.037370106,-1.0261,-0.2859,-0.2629,-1.9989,-1.4343,1.8311
4.037716051,4.040007016,-1.0261,-0.2859,-0.2629,-1.9989,-1.4343,1.8311
4.040352961,4.042661091,-1.0261,-0.3218,-0.2729,-3.8147,-2.3041,0.3052
4.04300799,4.045293947,-1.0122,-0.3218,-0.2729,-3.8147,-2.3041,0.3052
4.045639893,4.04792895,-1.0122,-0.3218,-0.2729,-3.8147,-2.3041,0.3052
4.048276087,4.050561091,-1.0122,-0.3218,-0.2729,-3.8147,-2.3041,0.3052
4.05090799,4.053218027,-1.0122,-0.3218,-0.2729,-4.9133,-2.594,-0.3052
4.053564926,4.05585303,-1.0122,-0.3218,-0.2729,-4.9133,-2.594,-0.3052
4.056199929,4.058488032,-1.0122,-0.3218,-0.2729,-4.9133,-2.594,-0.3052
4.058833977,4.061123987,-1.0122,-0.3218,-0.2729,-4.9133,-2.594,-0.3052
4.06149902,4.063794991,-1.0198,-0.3582,-0.2463,-4.9133,-3.006,0.1678
4.064140936,4.066435,-1.0198,-0.3582,-0.2463,-5.127,-3.006,0.1678
4.066784045,4.069074055,-1.0198,-0.3582,-0.2463,-5.127,-3.006,0.1678
4.069421908,4.071821114,-1.0198,-0.3582,-0.2463,-5.127,-3.006,0.1678
4.072167059,4.074460884,-1.0198,-0.3582,-0.2463,-5.127,-2.8381,0.4883
4.074808022,4.077102085,-1.0198,-0.3582,-0.2463,-3.4943,-2.8381,0.4883
4.077447077,4.079739949,-1.0198,-0.3582,-0.2463,-3.4943,-2.8381,0.4883
4.080085894,4.082531115,-1.0198,-0.2957,-0.2683,-3.4943,-2.8381,0.4883
4.082878014,4.085170885,-1.0569,-0.2864,-0.2683,-3.4943,-2.8381,0.6714
4.08551993,4.087813994,-1.0569,-0.2864,-0.2683,-2.3499,-2.0599,0.6714
4.088160893,4.090450903,-1.0569,-0.2864,-0.2683,-2.3499,-2.0599,0.6714
4.090797087,4.093094965,-1.0569,-0.2864,-0.2683,-2.3499,-2.0599,0.6714
4.093440911,4.095730921,-1.0569,-0.2864,-0.2683,-2.3499,-2.0599,-0.2747
4.096078059,4.098368069,-1.0569,-0.2864,-0.2683,-2.5482,-1.8921,-0.2747
4.098714014,4.101002117,-1.0569,-0.2864,-0.2683,-2.5482,-1.8921,-0.2747
4.10134997,4.103730103,-1.073,-0.2998,-0.2742,-2.5482,-1.8921,-0.2747
4.104077956,4.106367966,-1.073,-0.2998,-0.2742,-2.5482,-1.8921,-0.2747
4.106716057,4.109000107,-1.073,-0.2998,-0.2742,-2.1973,-1.8005,-1.0986
4.109454056,4.111750981,-1.073,-0.2998,-0.2742,-2.1973,-1.8005,-1.0986
4.112095972,4.114391943,-1.073,-0.2998,-0.2742,-2.1973,-1.8005,-1.0986
4.114739081,4.117026945,-1.073,-0.2998,-0.2742,-2.1973,-1.8005,-1.0986
4.117372891,4.11966004,-1.073,-0.2998,-0.2742,-2.182,-1.8463,-1.5717
4.120006939,4.122348925,-1.073,-0.2998,-0.2529,-2.182,-1.8463,-1.5717
4.122697016,4.125124117,-1.0488,-0.3311,-0.2529,-2.182,-1.8463,-1.5717
4.125487944,4.127790114,-1.0488,-0.3311,-0.2529,-2.182,-1.8463,-1.5717
4.128135105,4.130427977,-1.0488,-0.3311,-0.2529,-1.3275,-1.5106,-1.8311
4.130773922,4.133094927,-1.0488,-0.3311,-0.2529,-1.3275,-1.5106,-1.8311
4.133442065,4.135728022,-1.0488,-0.3311,-0.2529,-1.3275,-1.5106,-1.8311
4.136074921,4.138461014,-1.0488,-0.3311,-0.2529,-1.3275,-1.5106,-1.8311
4.138809105,4.14110293,-1.0488,-0.3311,-0.2529,-0.3204,-0.8698,-1.6632
4.144062897,4.146357914,-1.0305,-0.321,-0.2666,-0.3204,-0.8698,-1.6632
4.146710058,4.149007937,-1.0305,-0.321,-0.2666,-0.3204,-0.8698,-1.6632
4.149355074,4.151686093,-1.0305,-0.321,-0.2666,-0.4578,-0.7629,-1.8311
4.152034899,4.154331108,-1.0305,-0.321,-0.2666,-0.4578,-0.7629,-1.8311
4.154679915,4.156971117,-1.0305,-0.321,-0.2666,-0.4578,-0.7629,-1.8311
4.15731897,4.15960898,-1.0305,-0.321,-0.2666,-0.4578,-0.7629,-1.8311
4.159954926,4.162279984,-1.0305,-0.321,-0.2666,0.1373,-0.885,-1.0376
4.162628075,4.164919039,-1.0278,-0.3359,-0.2722,0.1373,-0.885,-1.0376
4.165265938,4.167560002,-1.0278,-0.3359,-0.2722,0.1373,-0.885,-1.0376
4.167908093,4.170200964,-1.0278,-0.3359,-0.2722,0.1373,-0.885,-1.0376
4.170548102,4.172877928,-1.0278,-0.3359,-0.2722,0.2136,-0.8698,-0.412
4.173226019,4.175517937,-1.0278,-0.3359,-0.2722,0.2136,-0.8698,-0.412
4.175865074,4.178152939,-1.0278,-0.3359,-0.2722,0.2136,-0.8698,-0.412
4.178501984,4.180795094,-1.0278,-0.3359,-0.2722,0.2136,-0.8698,-0.412
4.181142947,4.183454891,-1.0332,-0.3281,-0.2739,0.2136,-0.9766,-0.1221
4.183802029,4.186096093,-1.0332,-0.3281,-0.2739,-0.3052,-0.9766,-0.1221
4.186444899,4.188732048,-1.0332,-0.3281,-0.2739,-0.3052,-0.9766,-0.1221
4.189079901,4.191378018,-1.0332,-0.3281,-0.2739,-0.3052,-0.9766,-0.1221
4.191913983,4.194209,-1.0332,-0.3281,-0.2739,-0.3052,-0.9766,-0.1526
4.194557091,4.196854969,-1.0332,-0.3281,-0.2739,-0.9003,-1.8005,-0.1526
4.19720306,4.199495932,-1.0332,-0.3281,-0.2739,-0.9003,-1.8005,-0.1526
4.199844023,4.202268978,-1.0332,-0.3281,-0.2739,-0.9003,-1.8005,-0.1526
4.202618023,4.204917094,-1.0217,-0.3445,-0.2678,-0.9003,-1.8005,0.1984
4.2052659,4.20755901,-1.0217,-0.3445,-0.2678,-1.3733,-1.9836,0.1984
4.207907101,4.210193058,-1.0217,-0.3445,-0.2678,-1.3733,-1.9836,0.1984
4.210539957,4.212865015,-1.0217,-0.3445,-0.2678,-1.3733,-1.9836,0.1984
4.213211914,4.215505024,-1.0217,-0.3445,-0.2678,-1.3733,-1.9836,0.1984
4.215850016,4.218145033,-1.0217,-0.3445,-0.2678,-0.8087,-1.9379,0.946
4.218491932,4.220780989,-1.0217,-0.3445,-0.2678,-0.8087,-1.9379,0.946
4.221126934,4.223435065,-1.0217,-0.3269,-0.2603,-0.8087,-1.9379,0.946
4.223901888,4.226200005,-1.0327,-0.3269,-0.2603,-0.8087,-1.9379,0.946
4.22654905,4.228841921,-1.0327,-0.3269,-0.2603,-0.2747,-1.7548,1.6479
4.229188105,4.231836935,-1.0327,-0.3269,-0.2603,-0.2747,-1.7548,1.6479
4.232183119,4.234474083,-1.0327,-0.3269,-0.2603,-0.2747,-1.7548,1.6479
4.234820029,4.238663098,-1.0327,-0.3269,-0.2603,-0.2747,-1.7548,1.6479
4.239013096,4.241831919,-1.0327,-0.3269,-0.2603,-0.3815,-1.5869,1.6174
4.24218001,4.244470974,-1.0405,-0.3098,-0.2568,-0.3815,-1.5869,1.6174
4.24481692,4.247110029,-1.0405,-0.3098,-0.2568,-0.3815,-1.5869,1.6174
4.247455975,4.249746939,-1.0405,-0.3098,-0.2568,-0.8545,-1.6479,1.1597
4.250090977,4.252425095,-1.0405,-0.3098,-0.2568,-0.8545,-1.6479,1.1597
4.252770087,4.255061051,-1.0405,-0.3098,-0.2568,-0.8545,-1.6479,1.1597
4.255410095,4.257697007,-1.0405,-0.3098,-0.2568,-0.8545,-1.6479,1.1597
4.258045098,4.260332009,-1.0405,-0.3098,-0.2568,-1.1902,-1.9989,0.8087
4.260678908,4.263035914,-1.0405,-0.3723,-0.2581,-1.1902,-1.9989,0.8087
4.263382098,4.265669962,-1.042,-0.3147,-0.2581,-1.1902,-1.9989,0.8087
4.266015908,4.268305918,-1.042,-0.3147,-0.2581,-1.1902,-1.9989,0.8087
4.268654009,4.270943066,-1.042,-0.3147,-0.2581,-0.7172,-1.4038,0.9155
4.271290919,4.273637911,-1.042,-0.3147,-0.2581,-0.7172,-1.4038,0.9155
4.273986956,4.276274105,-1.042,-0.3147,-0.2581,-0.7172,-1.4038,0.9155
4.276621958,4.278912922,-1.042,-0.3147,-0.2581,-0.7172,-1.4038,0.9155
4.279259106,4.28162398,-1.042,-0.3147,-0.2581,-0.7172,-1.2817,0.5188
4.281971117,4.284270903,-1.0537,-0.291,-0.2749,-0.8545,-1.2817,0.5188
4.28461804,4.286913058,-1.0537,-0.291,-0.2749,-0.8545,-1.2817,0.5188
4.287259957,4.289552113,-1.0537,-0.291,-0.2749,-0.8545,-1.2817,0.5188
4.289899012,4.292354962,-1.0537,-0.291,-0.2749,-0.8545,-1.2817,0.1984
4.292702099,4.294990917,-1.0537,-0.291,-0.2749,-0.8392,-1.5106,0.1984
4.295339009,4.297627112,-1.0537,-0.291,-0.2749,-0.8392,-1.5106,0.1984
4.297973057,4.300268074,-1.0537,-0.291,-0.2749,-0.8392,-1.5106,0.1984
4.30061402,4.30291309,-1.0537,-0.291,-0.2747,-0.8392,-1.5106,-0.7782
4.303260943,4.305554053,-1.0361,-0.3118,-0.2747,-0.7629,-1.5564,-0.7782
4.305900952,4.308190962,-1.0361,-0.3118,-0.2747,-0.7629,-1.5564,-0.7782
4.308536907,4.31082811,-1.0361,-0.3118,-0.2747,-0.7629,-1.5564,-0.7782
4.311176916,4.313485047,-1.0361,-0.3118,-0.2747,-0.7629,-1.5564,-0.7782
4.313834091,4.316130062,-1.0361,-0.3118,-0.2747,-0.946,-1.4343,-1.3428
4.316476961,4.318771979,-1.0361,-0.3118,-0.2747,-0.946,-1.4343,-1.3428
4.319117924,4.321412941,-1.0361,-0.3118,-0.2747,-0.946,-1.4343,-1.3428
4.321814915,4.32423391,-1.0286,-0.313,-0.2686,-0.946,-1.4343,-1.3428
4.324587008,4.327005049,-1.0286,-0.313,-0.2686,0.1373,-1.0834,-1.2054
4.327360054,4.329848906,-1.0286,-0.313,-0.2686,0.1373,-1.0834,-1.2054
4.330196043,4.332667967,-1.0286,-0.313,-0.2686,0.1373,-1.0834,-1.2054
4.333022019,4.335409066,-1.0286,-0.313,-0.2686,0.1373,-1.0834,-1.2054
4.335761925,4.340557953,-1.0286,-0.313,-0.2686,0.7019,-0.6104,-1.3885
4.340910097,4.343959948,-1.0286,-0.2505,-0.2725,0.7019,-0.6104,-1.3885
4.344420096,4.346719881,-1.0354,-0.3005,-0.2725,0.7019,-0.6104,-1.8158
4.347071072,4.349358937,-1.0354,-0.3005,-0.2725,0.2289,-1.1139,-1.8158
4.349706074,4.352056881,-1.0354,-0.3005,-0.2725,0.2289,-1.1139,-1.8158
4.352404972,4.354689976,-1.0354,-0.3005,-0.2725,0.2289,-1.1139,-1.8158
4.355035921,4.357322117,-1.0354,-0.3005,-0.2725,0.2289,-1.1139,-1.8158
4.357669016,4.35995998,-1.0354,-0.3005,-0.2725,0.061,-1.4496,-2.2736
4.360308071,4.362676045,-1.0354,-0.3005,-0.2725,0.061,-1.4496,-2.2736
4.363023897,4.365312954,-1.0376,-0.3071,-0.2739,0.061,-1.4496,-2.2736
4.365661999,4.36795797,-1.0376,-0.3071,-0.2739,0.061,-1.4496,-2.2736
4.368306061,4.370598933,-1.0376,-0.3071,-0.2739,-0.3967,-1.5564,-3.067
4.370945116,4.373335978,-1.0376,-0.3071,-0.2739,-0.3967,-1.5564,-3.067
4.373683115,4.375975033,-1.0376,-0.3071,-0.2739,-0.3967,-1.5564,-3.067
4.376320025,4.378610035,-1.0376,-0.3071,-0.2739,-0.3967,-1.5564,-3.067
4.378955027,4.381250998,-1.0376,-0.3071,-0.2739,-0.6714,-1.8616,-3.4027
4.381599089,4.383915087,-1.0376,-0.3105,-0.2688,-0.6714,-1.8616,-3.4027
4.38426294,4.386546036,-1.0383,-0.3105,-0.2688,-0.6714,-1.8616,-3.4027
4.386891981,4.389190098,-1.0383,-0.3105,-0.2688,-0.6714,-1.8616,-3.4027
4.389536043,4.391976019,-1.0383,-0.3105,-0.2688,-0.824,-2.121,-3.8757
4.392322918,4.394620081,-1.0383,-0.3105,-0.2688,-0.824,-2.121,-3.8757
4.394966027,4.397256991,-1.0383,-0.3105,-0.2688,-0.824,-2.121,-3.8757
4.397602936,4.39988794,-1.0383,-0.3105,-0.2688,-0.824,-2.121,-3.8757
4.400236985,4.402733942,-1.0383,-0.3105,-0.2688,-0.3357,-1.6937,-4.1351
4.40308108,4.405368944,-1.0291,-0.3093,-0.2722,-0.3357,-1.6937,-4.1351
4.405717036,4.4080049,-1.0291,-0.3093,-0.2722,-0.3357,-1.6937,-4.1351
4.408349892,4.410643956,-1.0291,-0.3093,-0.2722,-0.3357,-1.6937,-4.1351
4.410987994,4.413289925,-1.0291,-0.3093,-0.2722,-0.2441,-1.0986,-4.4098
4.413637062,4.415934941,-1.0291,-0.3093,-0.2722,-0.2441,-1.0986,-4.4098
4.416282078,4.418575903,-1.0291,-0.3093,-0.2722,-0.2441,-1.0986,-4.4098
4.418924948,4.421217104,-1.0291,-0.3093,-0.2722,-0.2441,-1.0986,-4.4098
4.421562096,4.423859021,-1.0291,-0.3157,-0.2688,-0.0916,-1.7395,-4.6539
4.424207112,4.426494023,-1.03,-0.3157,-0.2688,-0.0916,-1.7395,-4.6539
4.426840922,4.429130932,-1.03,-0.3157,-0.2688,-0.0916,-1.7395,-4.6539
4.42947807,4.43205299,-1.03,-0.3157,-0.2688,-0.0916,-1.7395,-4.6539
4.432401081,4.434694907,-1.03,-0.3157,-0.2688,0.0305,-1.6785,-4.6387
4.435043951,4.439326903,-1.03,-0.3157,-0.2688,0.0305,-1.6785,-4.6387
4.439678093,4.441979071,-1.03,-0.3157,-0.2688,0.0305,-1.6785,-4.6387
4.442325016,4.44461598,-1.0344,-0.3206,-0.2708,0.0305,-1.6785,-4.5776
4.444965025,4.447256943,-1.0344,-0.3206,-0.2708,0.6256,-1.2054,-4.5776
4.447605034,4.449892899,-1.0344,-0.3206,-0.2708,0.6256,-1.2054,-4.5776
4.450240036,4.452535054,-1.0344,-0.3206,-0.2708,0.6256,-1.2054,-4.5776
4.452880999,4.455170056,-1.0344,-0.3206,-0.2708,0.6256,-1.2054,-4.5776
4.455517908,4.457809111,-1.0344,-0.3206,-0.2708,0.7324,-1.5411,-4.6997
4.458154103,4.460441014,-1.0344,-0.3206,-0.2708,0.7324,-1.5411,-4.6997
4.460895916,4.463227888,-1.0344,-0.3206,-0.2708,0.7324,-1.5411,-4.6997
4.463575026,4.465870997,-1.0381,-0.3142,-0.2673,0.7324,-1.5411,-4.6997
4.466216942,4.468504092,-1.0381,-0.3142,-0.2673,0.7782,-1.2512,-4.6082
4.468850991,4.471140047,-1.0381,-0.3142,-0.2673,0.7782,-1.2512,-4.6082
4.471520087,4.473813912,-1.0381,-0.3142,-0.2673,0.7782,-1.2512,-4.6082
4.474161049,4.476453921,-1.0381,-0.3142,-0.2673,0.7782,-1.2512,-4.6082
4.476800104,4.479092022,-1.0381,-0.3142,-0.2673,0.9766,-0.7477,-5.0812
4.479438921,4.481814047,-1.0381,-0.3142,-0.2673,0.9766,-0.7477,-5.0812
4.4821619,4.48445501,-1.0381,-0.3162,-0.2639,0.9766,-0.7477,-5.0812
4.484800955,4.487091919,-1.0322,-0.3162,-0.2639,0.9766,-0.7477,-5.0812
4.487438103,4.489725014,-1.0322,-0.3162,-0.2639,0.6409,-0.6714,-5.1422
4.490075012,4.492525955,-1.0322,-0.3162,-0.2639,0.6409,-0.6714,-5.1422
4.492874047,4.495171925,-1.0322,-0.3162,-0.2639,0.6409,-0.6714,-5.1422
4.495519062,4.497808119,-1.0322,-0.3162,-0.2639,0.6409,-0.6714,-5.1422
4.498155972,4.500446936,-1.0322,-0.3162,-0.2639,0.3357,-0.7629,-4.7455
4.500792881,4.503095051,-1.0322,-0.3162,-0.2639,0.3357,-0.7629,-4.7455
4.503442904,4.505730053,-1.0325,-0.3369,-0.2651,0.3357,-0.7629,-4.7455
4.506076952,4.508367916,-1.0325,-0.3369,-0.2651,0.3357,-0.7629,-4.7455
4.508716961,4.511006018,-1.0325,-0.3369,-0.2651,0.7019,-0.824,-4.0894
4.511354109,4.513785979,-1.0325,-0.3369,-0.2651,0.7019,-0.824,-4.0894
4.514135023,4.516425988,-1.0325,-0.3369,-0.2651,0.7019,-0.824,-4.0894
4.516772887,4.51906695,-1.0325,-0.3369,-0.2651,0.7019,-0.824,-4.0894
4.519415041,4.521711966,-1.0325,-0.3369,-0.2651,0.8698,-0.6714,-3.54
4.522059103,4.524355074,-1.0325,-0.3381,-0.2664,0.8698,-0.6714,-3.54
4.524702927,4.526993891,-1.0334,-0.3381,-0.2664,0.8698,-0.6714,-3.54
4.527341028,4.529630085,-1.0334,-0.3381,-0.2664,0.8698,-0.6714,-3.54
4.529978892,4.532275101,-1.0334,-0.3381,-0.2664,0.8698,-0.3357,-3.6469
4.532693049,4.534992119,-1.0334,-0.3381,-0.2664,0.5951,-0.3357,-3.6469
4.535339972,4.537633082,-1.0334,-0.3381,-0.2664,0.5951,-0.3357,-3.6469
4.537979981,4.540264031,-1.0334,-0.3381,-0.2664,0.5951,-0.3357,-3.6469
4.54061093,4.542924067,-1.0334,-0.3381,-0.2664,0.5951,-0.3357,-2.8076
4.543270966,4.545564076,-1.0254,-0.3335,-0.2678,0.8698,-0.4272,-2.8076
4.545910975,4.548261067,-1.0254,-0.3335,-0.2678,0.8698,-0.4272,-2.8076
4.548612019,4.550907036,-1.0254,-0.3335,-0.2678,0.8698,-0.4272,-2.8076
4.551256081,4.555355927,-1.0254,-0.3335,-0.2678,0.9918,-0.5493,-2.1057
4.555704018,4.557999989,-1.0254,-0.3335,-0.2678,0.9918,-0.5493,-2.1057
4.558346888,4.56063809,-1.0254,-0.3335,-0.2678,0.9918,-0.5493,-2.1057
4.560984036,4.563357016,-1.0254,-0.3335,-0.2678,0.9918,-0.5493,-2.1057
4.563702961,4.565996071,-1.0364,-0.3271,-0.2705,1.2207,-0.7172,-1.5259
4.566345116,4.568632027,-1.0364,-0.3271,-0.2705,1.2207,-0.7172,-1.5259
4.568980118,4.571267983,-1.0364,-0.3271,-0.2705,1.2207,-0.7172,-1.5259
4.571613928,4.573902031,-1.0364,-0.3271,-0.2705,1.2207,-0.7172,-1.5259
4.574360033,4.576656004,-1.0364,-0.3271,-0.2705,1.0071,-0.3662,-1.6327
4.577004095,4.579299113,-1.0364,-0.3271,-0.2705,1.0071,-0.3662,-1.6327
4.579644104,4.581940075,-1.0364,-0.3271,-0.2705,1.0071,-0.3662,-1.6327
4.582285067,4.584571978,-1.0364,-0.3425,-0.2664,1.0071,-0.3662,-1.6327
4.584921023,4.587207934,-1.0388,-0.3425,-0.2664,1.0834,-0.5493,-1.297
4.587555071,4.58984389,-1.0388,-0.3425,-0.2664,1.0834,-0.5493,-1.297
4.590191981,4.592569968,-1.0388,-0.3425,-0.2664,1.0834,-0.5493,-1.297
4.592917105,4.595205923,-1.0388,-0.3425,-0.2664,1.0834,-0.5493,-1.297
