timestamp_before,timestamp_after,accel_x,accel_y,accel_z,gyro_x,gyro_y,gryo_z
1491852968.8016190529,1491852968.8043758869, -0.1888, -0.0046,  0.0079,  0.0215,  0.0125, -0.0164
1491852968.8048288822,1491852968.8071279526, -0.2122, -0.0074,  0.0016,  0.0215,  0.0125, -0.0164
1491852968.8074998856,1491852968.8098421097, -0.2184, -0.0074,  0.0016,  0.0203,  0.0150, -0.0153
1491852968.8102118969,1491852968.8125059605, -0.2184, -0.0074,  0.0016,  0.0203,  0.0150, -0.0153
1491852968.8128759861,1491852968.8152840137, -0.2184, -0.0074,  0.0016,  0.0203,  0.0150, -0.0153
1491852968.8156569004,1491852968.8179550171, -0.2184, -0.0074,  0.0016,  0.0203,  0.0150, -0.0153
1491852968.8183240891,1491852968.8206219673, -0.1878, -0.0059,  0.0032,  0.0179,  0.0154, -0.0150
1491852968.8209910393,1491852968.8232960701, -0.1878, -0.0059,  0.0032,  0.0179,  0.0154, -0.0150
1491852968.8236649036,1491852968.8261690140, -0.1878, -0.0059,  0.0032,  0.0179,  0.0154, -0.0150
1491852968.8265399933,1491852968.8288400173, -0.1878, -0.0059,  0.0032,  0.0179,  0.0154, -0.0150
1491852968.8292119503,1491852968.8315129280, -0.1878, -0.0059,  0.0032,  0.0168,  0.0140, -0.0143
1491852968.8319220543,1491852968.8343980312, -0.1878, -0.0059,  0.0032,  0.0168,  0.0140, -0.0143
1491852968.8347699642,1491852968.8370759487, -0.1878, -0.0059,  0.0032,  0.0168,  0.0140, -0.0143
1491852968.8374459743,1491852968.8397419453, -0.1881, -0.0043,  0.0023,  0.0168,  0.0134, -0.0142
1491852968.8401100636,1491852968.8424110413, -0.1881, -0.0043,  0.0023,  0.0164,  0.0134, -0.0142
1491852968.8427820206,1491852968.8451099396, -0.1881, -0.0043,  0.0023,  0.0164,  0.0134, -0.0142
1491852968.8454799652,1491852968.8477849960, -0.1881, -0.0043,  0.0023,  0.0164,  0.0134, -0.0142
1491852968.8481540680,1491852968.8504519463, -0.1881, -0.0043,  0.0023,  0.0165,  0.0134, -0.0137
1491852968.8508210182,1491852968.8531270027, -0.1881, -0.0043,  0.0023,  0.0165,  0.0134, -0.0137
1491852968.8534960747,1491852968.8559379578, -0.1881, -0.0043,  0.0023,  0.0165,  0.0134, -0.0137
1491852968.8563139439,1491852968.8587388992, -0.1881, -0.0037,  0.0027,  0.0165,  0.0134, -0.0137
1491852968.8591160774,1491852968.8615319729, -0.1881, -0.0037,  0.0027,  0.0165,  0.0145, -0.0135
1491852968.8619079590,1491852968.8643279076, -0.1881, -0.0037,  0.0027,  0.0165,  0.0145, -0.0135
1491852968.8647019863,1491852968.8671050072, -0.1881, -0.0037,  0.0027,  0.0165,  0.0145, -0.0135
1491852968.8674790859,1491852968.8699750900, -0.1881, -0.0037,  0.0027,  0.0165,  0.0145, -0.0135
1491852968.8703520298,1491852968.8727829456, -0.1881, -0.0037,  0.0027,  0.0155,  0.0151, -0.0135
1491852968.8731589317,1491852968.8756051064, -0.1881, -0.0037,  0.0027,  0.0155,  0.0151, -0.0135
1491852968.8759820461,1491852968.8784079552, -0.1881, -0.0037,  0.0039,  0.0155,  0.0151, -0.0135
1491852968.8787860870,1491852968.8812160492, -0.1881, -0.0044,  0.0039,  0.0152,  0.0161, -0.0134
1491852968.8815929890,1491852968.8840548992, -0.1881, -0.0044,  0.0039,  0.0152,  0.0161, -0.0134
1491852968.8844349384,1491852968.8867371082, -0.1881, -0.0044,  0.0039,  0.0152,  0.0161, -0.0134
1491852968.8871059418,1491852968.8894109726, -0.1881, -0.0044,  0.0039,  0.0152,  0.0161, -0.0134
1491852968.8897829056,1491852968.8921399117, -0.1881, -0.0044,  0.0039,  0.0144,  0.0170, -0.0136
1491852968.8925149441,1491852968.8949069977, -0.1881, -0.0044,  0.0039,  0.0144,  0.0170, -0.0136
1491852968.8952870369,1491852968.8977119923, -0.1881, -0.0044,  0.0039,  0.0144,  0.0170, -0.0136
1491852968.8980879784,1491852968.9005110264, -0.1872, -0.0044,  0.0017,  0.0144,  0.0170, -0.0136
1491852968.9008879662,1491852968.9033169746, -0.1872, -0.0044,  0.0017,  0.0136,  0.0174, -0.0132
1491852968.9036951065,1491852968.9061329365, -0.1872, -0.0044,  0.0017,  0.0136,  0.0174, -0.0132
1491852968.9065110683,1491852968.9089379311, -0.1872, -0.0044,  0.0017,  0.0136,  0.0174, -0.0132
1491852968.9093139172,1491852968.9117369652, -0.1872, -0.0044,  0.0017,  0.0136,  0.0179, -0.0133
1491852968.9121150970,1491852968.9145519733, -0.1872, -0.0044,  0.0017,  0.0134,  0.0179, -0.0133
1491852968.9149289131,1491852968.9173541069, -0.1872, -0.0044,  0.0017,  0.0134,  0.0179, -0.0133
1491852968.9178678989,1491852968.9202959538, -0.1868, -0.0049, -0.0027,  0.0134,  0.0179, -0.0133
1491852968.9206719398,1491852968.9230999947, -0.1868, -0.0049, -0.0027,  0.0121,  0.0185, -0.0135
1491852968.9234769344,1491852968.9258251190, -0.1868, -0.0049, -0.0027,  0.0121,  0.0185, -0.0135
1491852968.9261929989,1491852968.9284911156, -0.1868, -0.0049, -0.0027,  0.0121,  0.0185, -0.0135
1491852968.9288589954,1491852968.9311590195, -0.1868, -0.0049, -0.0027,  0.0121,  0.0185, -0.0135
1491852968.9315259457,1491852968.9338319302, -0.1868, -0.0049, -0.0027,  0.0122,  0.0171, -0.0133
1491852968.9341979027,1491852968.9364979267, -0.1868, -0.0049, -0.0027,  0.0122,  0.0171, -0.0133
1491852968.9368679523,1491852968.9391698837, -0.1863, -0.0036, -0.0061,  0.0122,  0.0171, -0.0133
1491852968.9395399094,1491852968.9418430328, -0.1863, -0.0036, -0.0061,  0.0122,  0.0171, -0.0133
1491852968.9422121048,1491852968.9446361065, -0.1863, -0.0036, -0.0061,  0.0135,  0.0141, -0.0144
1491852968.9450130463,1491852968.9474289417, -0.1863, -0.0036, -0.0061,  0.0135,  0.0141, -0.0144
1491852968.9478080273,1491852968.9502151012, -0.1863, -0.0036, -0.0061,  0.0135,  0.0141, -0.0144
1491852968.9505898952,1491852968.9530000687, -0.1863, -0.0036, -0.0061,  0.0135,  0.0126, -0.0146
1491852968.9533760548,1491852968.9557979107, -0.1863, -0.0036, -0.0061,  0.0134,  0.0126, -0.0146
1491852968.9561738968,1491852968.9585869312, -0.1886, -0.0055,  0.0007,  0.0134,  0.0126, -0.0146
1491852968.9589641094,1491852968.9613809586, -0.1886, -0.0055,  0.0007,  0.0134,  0.0126, -0.0146
1491852968.9617559910,1491852968.9641749859, -0.1886, -0.0055,  0.0007,  0.0135,  0.0118, -0.0147
1491852968.9645500183,1491852968.9669420719, -0.1886, -0.0055,  0.0007,  0.0135,  0.0118, -0.0147
1491852968.9673180580,1491852968.9698181152, -0.1886, -0.0055,  0.0007,  0.0135,  0.0118, -0.0147
1491852968.9701941013,1491852968.9726109505, -0.1886, -0.0055,  0.0007,  0.0135,  0.0118, -0.0147
1491852968.9729869366,1491852968.9754168987, -0.1886, -0.0055,  0.0007,  0.0138,  0.0125, -0.0135
1491852968.9758520126,1491852968.9781870842, -0.1876, -0.0039, -0.0009,  0.0138,  0.0125, -0.0135
1491852968.9785580635,1491852968.9808590412, -0.1876, -0.0039, -0.0009,  0.0138,  0.0125, -0.0135
1491852968.9812290668,1491852968.9835391045, -0.1876, -0.0039, -0.0009,  0.0138,  0.0125, -0.0141
1491852968.9839100838,1491852968.9863400459, -0.1876, -0.0039, -0.0009,  0.0132,  0.0132, -0.0141
1491852968.9867110252,1491852968.9890050888, -0.1876, -0.0039, -0.0009,  0.0132,  0.0132, -0.0141
1491852968.9893760681,1491852968.9916770458, -0.1876, -0.0039, -0.0009,  0.0132,  0.0132, -0.0141
1491852968.9920449257,1491852968.9944300652, -0.1876, -0.0039, -0.0009,  0.0127,  0.0133, -0.0129
1491852968.9948079586,1491852968.9971981049, -0.1876, -0.0039, -0.0018,  0.0127,  0.0133, -0.0129
1491852968.9975740910,1491852969.0000860691, -0.1866, -0.0050, -0.0018,  0.0127,  0.0133, -0.0129
1491852969.0004630089,1491852969.0028500557, -0.1866, -0.0050, -0.0018,  0.0127,  0.0133, -0.0129
1491852969.0039770603,1491852969.0064129829, -0.1866, -0.0050, -0.0018,  0.0113,  0.0135, -0.0131
1491852969.0067930222,1491852969.0092160702, -0.1866, -0.0050, -0.0018,  0.0113,  0.0135, -0.0131
1491852969.0095930099,1491852969.0120179653, -0.1866, -0.0050, -0.0018,  0.0113,  0.0135, -0.0131
1491852969.0123960972,1491852969.0148758888, -0.1866, -0.0050, -0.0018,  0.0113,  0.0132, -0.0128
1491852969.0152540207,1491852969.0176770687, -0.1866, -0.0043, -0.0031,  0.0107,  0.0132, -0.0128
1491852969.0180530548,1491852969.0204799175, -0.1862, -0.0043, -0.0031,  0.0107,  0.0132, -0.0128
1491852969.0208580494,1491852969.0232799053, -0.1862, -0.0043, -0.0031,  0.0107,  0.0132, -0.0128
1491852969.0236558914,1491852969.0260970592, -0.1862, -0.0043, -0.0031,  0.0099,  0.0131, -0.0131
1491852969.0264749527,1491852969.0289070606, -0.1862, -0.0043, -0.0031,  0.0099,  0.0131, -0.0131
1491852969.0292840004,1491852969.0317099094, -0.1862, -0.0043, -0.0031,  0.0099,  0.0131, -0.0131
1491852969.0322129726,1491852969.0346469879, -0.1862, -0.0043, -0.0031,  0.0099,  0.0131, -0.0135
1491852969.0350170135,1491852969.0373260975, -0.1862, -0.0047, -0.0038,  0.0084,  0.0120, -0.0135
1491852969.0376949310,1491852969.0399920940, -0.1861, -0.0047, -0.0038,  0.0084,  0.0120, -0.0135
1491852969.0403618813,1491852969.0426669121, -0.1861, -0.0047, -0.0038,  0.0084,  0.0120, -0.0135
1491852969.0430369377,1491852969.0453779697, -0.1861, -0.0047, -0.0038,  0.0084,  0.0120, -0.0135
1491852969.0457499027,1491852969.0480520725, -0.1861, -0.0047, -0.0038,  0.0075,  0.0106, -0.0135
1491852969.0484209061,1491852969.0507268906, -0.1861, -0.0047, -0.0038,  0.0075,  0.0106, -0.0135
1491852969.0510959625,1491852969.0533978939, -0.1861, -0.0047, -0.0038,  0.0075,  0.0106, -0.0135
1491852969.0537669659,1491852969.0563809872, -0.1861, -0.0047,  0.0041,  0.0066,  0.0112, -0.0131
1491852969.0567619801,1491852969.0591790676, -0.1871, -0.0051,  0.0001,  0.0066,  0.0112, -0.0131
1491852969.0595550537,1491852969.0619680882, -0.1871, -0.0051,  0.0001,  0.0066,  0.0112, -0.0131
1491852969.0623440742,1491852969.0647659302, -0.1871, -0.0051,  0.0001,  0.0066,  0.0112, -0.0131
1491852969.0651419163,1491852969.0675249100, -0.1871, -0.0051,  0.0001,  0.0059,  0.0117, -0.0132
1491852969.0679008961,1491852969.0703361034, -0.1871, -0.0051,  0.0001,  0.0059,  0.0117, -0.0132
1491852969.0707139969,1491852969.0731449127, -0.1871, -0.0051,  0.0001,  0.0059,  0.0117, -0.0132
1491852969.0735208988,1491852969.0759561062, -0.1871, -0.0051,  0.0001,  0.0059,  0.0117, -0.0129
1491852969.0763349533,1491852969.0787639618, -0.1877, -0.0040, -0.0007,  0.0062,  0.0121, -0.0129
1491852969.0791409016,1491852969.0815689564, -0.1877, -0.0040, -0.0007,  0.0062,  0.0121, -0.0129
1491852969.0819470882,1491852969.0843698978, -0.1877, -0.0040, -0.0007,  0.0062,  0.0121, -0.0129
1491852969.0847411156,1491852969.0870449543, -0.1877, -0.0040, -0.0007,  0.0063,  0.0121, -0.0133
1491852969.0874159336,1491852969.0897169113, -0.1877, -0.0040, -0.0007,  0.0063,  0.0121, -0.0133
1491852969.0900869370,1491852969.0923860073, -0.1877, -0.0040, -0.0007,  0.0063,  0.0121, -0.0133
1491852969.0927538872,1491852969.0950698853, -0.1877, -0.0040, -0.0007,  0.0063,  0.0121, -0.0133
1491852969.0954389572,1491852969.0977339745, -0.1871, -0.0035, -0.0012,  0.0062,  0.0125, -0.0128
1491852969.0981040001,1491852969.1004040241, -0.1871, -0.0035, -0.0012,  0.0062,  0.0125, -0.0128
1491852969.1007750034,1491852969.1030769348, -0.1871, -0.0035, -0.0012,  0.0062,  0.0125, -0.0128
1491852969.1034491062,1491852969.1058111191, -0.1871, -0.0035, -0.0012,  0.0062,  0.0125, -0.0128
1491852969.1061820984,1491852969.1084899902, -0.1871, -0.0035, -0.0012,  0.0057,  0.0122, -0.0141
1491852969.1088600159,1491852969.1112830639, -0.1871, -0.0035, -0.0012,  0.0057,  0.0122, -0.0141
1491852969.1116549969,1491852969.1139559746, -0.1871, -0.0035, -0.0012,  0.0057,  0.0122, -0.0141
1491852969.1143751144,1491852969.1166739464, -0.1949, -0.0043, -0.0002,  0.0057,  0.0122, -0.0141
1491852969.1170449257,1491852969.1193389893, -0.1885, -0.0043, -0.0002,  0.0062,  0.0138, -0.0132
1491852969.1197090149,1491852969.1220059395, -0.1885, -0.0043, -0.0002,  0.0062,  0.0138, -0.0132
1491852969.1223759651,1491852969.1247138977, -0.1885, -0.0043, -0.0002,  0.0062,  0.0138, -0.0132
1491852969.1250898838,1491852969.1275179386, -0.1885, -0.0043, -0.0002,  0.0062,  0.0138, -0.0132
1491852969.1278951168,1491852969.1303210258, -0.1885, -0.0043, -0.0002,  0.0070,  0.0141, -0.0132
1491852969.1307001114,1491852969.1331338882, -0.1885, -0.0043, -0.0002,  0.0070,  0.0141, -0.0132
1491852969.1335089207,1491852969.1358549595, -0.1885, -0.0043, -0.0045,  0.0070,  0.0141, -0.0132
1491852969.1362249851,1491852969.1385231018, -0.1865, -0.0049, -0.0045,  0.0060,  0.0145, -0.0130
1491852969.1388940811,1491852969.1411950588, -0.1865, -0.0049, -0.0045,  0.0060,  0.0145, -0.0130
1491852969.1415650845,1491852969.1438601017, -0.1865, -0.0049, -0.0045,  0.0060,  0.0145, -0.0130
1491852969.1442298889,1491852969.1465311050, -0.1865, -0.0049, -0.0045,  0.0060,  0.0145, -0.0130
1491852969.1470189095,1491852969.1493189335, -0.1865, -0.0049, -0.0045,  0.0057,  0.0152, -0.0128
1491852969.1496899128,1491852969.1519880295, -0.1865, -0.0049, -0.0045,  0.0057,  0.0152, -0.0128
1491852969.1523590088,1491852969.1547749043, -0.1865, -0.0049, -0.0045,  0.0057,  0.0152, -0.0128
1491852969.1551458836,1491852969.1574430466, -0.1872, -0.0049, -0.0040,  0.0057,  0.0152, -0.0128
1491852969.1578140259,1491852969.1601181030, -0.1872, -0.0049, -0.0040,  0.0060,  0.0143, -0.0124
1491852969.1604869366,1491852969.1627900600, -0.1872, -0.0049, -0.0040,  0.0060,  0.0143, -0.0124
1491852969.1631600857,1491852969.1656529903, -0.1872, -0.0049, -0.0040,  0.0060,  0.0143, -0.0124
1491852969.1660330296,1491852969.1684648991, -0.1872, -0.0049, -0.0040,  0.0060,  0.0143, -0.0120
1491852969.1688439846,1491852969.1712620258, -0.1872, -0.0049, -0.0040,  0.0067,  0.0145, -0.0120
1491852969.1716389656,1491852969.1740710735, -0.1872, -0.0049, -0.0040,  0.0067,  0.0145, -0.0120
1491852969.1744430065,1491852969.1767380238, -0.1888, -0.0038,  0.0008,  0.0067,  0.0145, -0.0120
1491852969.1771090031,1491852969.1794068813, -0.1888, -0.0038,  0.0008,  0.0067,  0.0155, -0.0128
1491852969.1797759533,1491852969.1820800304, -0.1888, -0.0038,  0.0008,  0.0072,  0.0155, -0.0128
1491852969.1824510098,1491852969.1847980022, -0.1888, -0.0038,  0.0008,  0.0072,  0.0155, -0.0128
1491852969.1851749420,1491852969.1875960827, -0.1888, -0.0038,  0.0008,  0.0072,  0.0155, -0.0128
1491852969.1879730225,1491852969.1903989315, -0.1888, -0.0038,  0.0008,  0.0076,  0.0162, -0.0130
1491852969.1907761097,1491852969.1931989193, -0.1888, -0.0038,  0.0008,  0.0076,  0.0162, -0.0130
1491852969.1935770512,1491852969.1960079670, -0.1888, -0.0049, -0.0023,  0.0076,  0.0162, -0.0130
1491852969.1963870525,1491852969.1988110542, -0.1879, -0.0049, -0.0023,  0.0076,  0.0162, -0.0130
1491852969.1991870403,1491852969.2016060352, -0.1879, -0.0049, -0.0023,  0.0082,  0.0168, -0.0121
1491852969.2019820213,1491852969.2044620514, -0.1879, -0.0049, -0.0023,  0.0082,  0.0168, -0.0121
1491852969.2048408985,1491852969.2072610855, -0.1879, -0.0049, -0.0023,  0.0082,  0.0168, -0.0121
1491852969.2076380253,1491852969.2100670338, -0.1879, -0.0049, -0.0023,  0.0082,  0.0168, -0.0118
1491852969.2104458809,1491852969.2128748894, -0.1879, -0.0049, -0.0023,  0.0076,  0.0163, -0.0118
1491852969.2132530212,1491852969.2157011032, -0.1879, -0.0044, -0.0059,  0.0076,  0.0163, -0.0118
1491852969.2160799503,1491852969.2185070515, -0.1874, -0.0044, -0.0059,  0.0076,  0.0163, -0.0118
1491852969.2188849449,1491852969.2213070393, -0.1874, -0.0044, -0.0059,  0.0071,  0.0167, -0.0116
1491852969.2216830254,1491852969.2241179943, -0.1874, -0.0044, -0.0059,  0.0071,  0.0167, -0.0116
1491852969.2244880199,1491852969.2267880440, -0.1874, -0.0044, -0.0059,  0.0071,  0.0167, -0.0116
1491852969.2271580696,1491852969.2294590473, -0.1874, -0.0044, -0.0059,  0.0071,  0.0167, -0.0116
1491852969.2298290730,1491852969.2321300507, -0.1874, -0.0044, -0.0059,  0.0067,  0.0156, -0.0114
1491852969.2325010300,1491852969.2348439693, -0.1874, -0.0044, -0.0091,  0.0067,  0.0156, -0.0114
1491852969.2352139950,1491852969.2375121117, -0.1865, -0.0054, -0.0091,  0.0067,  0.0156, -0.0114
1491852969.2378840446,1491852969.2401809692, -0.1865, -0.0054, -0.0091,  0.0067,  0.0156, -0.0114
1491852969.2405519485,1491852969.2428519726, -0.1865, -0.0054, -0.0091,  0.0060,  0.0148, -0.0117
1491852969.2432210445,1491852969.2456181049, -0.1865, -0.0054, -0.0091,  0.0060,  0.0148, -0.0117
1491852969.2459950447,1491852969.2484240532, -0.1865, -0.0054, -0.0091,  0.0060,  0.0148, -0.0117
1491852969.2488029003,1491852969.2512269020, -0.1865, -0.0054, -0.0091,  0.0060,  0.0148, -0.0115
1491852969.2516040802,1491852969.2540729046, -0.1865, -0.0054, -0.0091,  0.0052,  0.0136, -0.0115
1491852969.2544510365,1491852969.2568778992, -0.1876, -0.0047, -0.0053,  0.0052,  0.0136, -0.0115
1491852969.2572550774,1491852969.2596759796, -0.1876, -0.0047, -0.0053,  0.0052,  0.0136, -0.0115
1491852969.2600550652,1491852969.2624809742, -0.1876, -0.0047, -0.0053,  0.0055,  0.0125, -0.0106
1491852969.2629699707,1491852969.2654020786, -0.1876, -0.0047, -0.0053,  0.0055,  0.0125, -0.0106
1491852969.2657790184,1491852969.2682058811, -0.1876, -0.0047, -0.0053,  0.0055,  0.0125, -0.0106
1491852969.2685849667,1491852969.2710111141, -0.1876, -0.0047, -0.0053,  0.0055,  0.0125, -0.0106
1491852969.2713880539,1491852969.2738149166, -0.1876, -0.0047, -0.0053,  0.0053,  0.0114, -0.0113
1491852969.2742009163,1491852969.2766299248, -0.1870, -0.0037, -0.0058,  0.0053,  0.0114, -0.0113
1491852969.2770080566,1491852969.2794361115, -0.1870, -0.0037, -0.0058,  0.0053,  0.0114, -0.0113
1491852969.2798140049,1491852969.2822389603, -0.1870, -0.0037, -0.0058,  0.0053,  0.0112, -0.0111
1491852969.2826170921,1491852969.2850298882, -0.1870, -0.0037, -0.0058,  0.0054,  0.0112, -0.0111
1491852969.2854011059,1491852969.2876980305, -0.1870, -0.0037, -0.0058,  0.0054,  0.0112, -0.0111
1491852969.2880690098,1491852969.2903649807, -0.1870, -0.0037, -0.0058,  0.0054,  0.0112, -0.0111
1491852969.2907350063,1491852969.2930409908, -0.1870, -0.0037, -0.0058,  0.0058,  0.0108, -0.0107
1491852969.2934110165,1491852969.2958080769, -0.1871, -0.0039, -0.0066,  0.0058,  0.0108, -0.0107
1491852969.2961850166,1491852969.2986109257, -0.1871, -0.0039, -0.0066,  0.0058,  0.0108, -0.0107
1491852969.2989881039,1491852969.3014130592, -0.1871, -0.0039, -0.0066,  0.0058,  0.0108, -0.0107
1491852969.3017909527,1491852969.3042619228, -0.1871, -0.0039, -0.0066,  0.0053,  0.0104, -0.0116
1491852969.3046369553,1491852969.3070619106, -0.1871, -0.0039, -0.0066,  0.0053,  0.0104, -0.0116
1491852969.3074390888,1491852969.3098590374, -0.1871, -0.0039, -0.0066,  0.0053,  0.0104, -0.0116
1491852969.3102350235,1491852969.3126599789, -0.1871, -0.0039, -0.0066,  0.0053,  0.0104, -0.0113
1491852969.3130390644,1491852969.3154730797, -0.1873, -0.0033, -0.0072,  0.0049,  0.0110, -0.0113
1491852969.3158500195,1491852969.3182780743, -0.1873, -0.0033, -0.0072,  0.0049,  0.0110, -0.0113
1491852969.3186569214,1491852969.3210821152, -0.1873, -0.0033, -0.0072,  0.0049,  0.0110, -0.0113
1491852969.3214600086,1491852969.3238840103, -0.1873, -0.0033, -0.0072,  0.0051,  0.0109, -0.0115
1491852969.3242700100,1491852969.3266999722, -0.1873, -0.0033, -0.0072,  0.0051,  0.0109, -0.0115
1491852969.3270790577,1491852969.3295080662, -0.1873, -0.0033, -0.0072,  0.0051,  0.0109, -0.0115
1491852969.3298859596,1491852969.3323121071, -0.1873, -0.0033, -0.0072,  0.0051,  0.0109, -0.0115
1491852969.3326900005,1491852969.3350749016, -0.1865, -0.0034, -0.0079,  0.0056,  0.0100, -0.0119
1491852969.3354480267,1491852969.3377459049, -0.1865, -0.0034, -0.0079,  0.0056,  0.0100, -0.0119
1491852969.3381168842,1491852969.3404140472, -0.1865, -0.0034, -0.0079,  0.0056,  0.0100, -0.0119
1491852969.3407831192,1491852969.3430869579, -0.1865, -0.0034, -0.0079,  0.0056,  0.0100, -0.0119
1491852969.3434560299,1491852969.3459069729, -0.1865, -0.0034, -0.0079,  0.0055,  0.0092, -0.0125
1491852969.3462860584,1491852969.3487079144, -0.1865, -0.0034, -0.0079,  0.0055,  0.0092, -0.0125
1491852969.3490839005,1491852969.3515079021, -0.1865, -0.0034, -0.0079,  0.0055,  0.0092, -0.0125
1491852969.3518850803,1491852969.3543219566, -0.1865, -0.0038, -0.0072,  0.0055,  0.0085, -0.0140
1491852969.3546988964,1491852969.3571250439, -0.1859, -0.0038, -0.0072,  0.0060,  0.0085, -0.0140
1491852969.3575038910,1491852969.3599269390, -0.1859, -0.0038, -0.0072,  0.0060,  0.0085, -0.0140
1491852969.3603041172,1491852969.3627290726, -0.1859, -0.0038, -0.0072,  0.0060,  0.0085, -0.0140
1491852969.3631050587,1491852969.3654680252, -0.1859, -0.0038, -0.0072,  0.0070,  0.0073, -0.0142
1491852969.3658399582,1491852969.3681440353, -0.1859, -0.0038, -0.0072,  0.0070,  0.0073, -0.0142
1491852969.3685150146,1491852969.3708159924, -0.1859, -0.0038, -0.0072,  0.0070,  0.0073, -0.0142
1491852969.3711869717,1491852969.3734889030, -0.1859, -0.0038, -0.0057,  0.0070,  0.0073, -0.0142
1491852969.3738589287,1491852969.3763189316, -0.1872, -0.0035, -0.0057,  0.0073,  0.0063, -0.0145
1491852969.3766970634,1491852969.3791239262, -0.1872, -0.0035, -0.0057,  0.0073,  0.0063, -0.0145
1491852969.3796119690,1491852969.3820369244, -0.1872, -0.0035, -0.0057,  0.0073,  0.0063, -0.0145
1491852969.3824141026,1491852969.3848559856, -0.1872, -0.0035, -0.0057,  0.0073,  0.0063, -0.0143
1491852969.3852250576,1491852969.3875260353, -0.1872, -0.0035, -0.0057,  0.0074,  0.0062, -0.0143
1491852969.3878951073,1491852969.3901898861, -0.1872, -0.0035, -0.0057,  0.0074,  0.0062, -0.0143
1491852969.3905620575,1491852969.3928589821, -0.1872, -0.0035, -0.0057,  0.0074,  0.0062, -0.0143
1491852969.3932290077,1491852969.3956201077, -0.1845, -0.0053, -0.0140,  0.0074,  0.0062, -0.0150
1491852969.3959980011,1491852969.3984220028, -0.1845, -0.0053, -0.0140,  0.0071,  0.0062, -0.0150
1491852969.3987989426,1491852969.4012250900, -0.1845, -0.0053, -0.0140,  0.0071,  0.0062, -0.0150
1491852969.4016048908,1491852969.4040710926, -0.1845, -0.0053, -0.0140,  0.0071,  0.0062, -0.0150
1491852969.4044480324,1491852969.4068748951, -0.1845, -0.0053, -0.0140,  0.0053,  0.0027, -0.0139
1491852969.4072520733,1491852969.4096820354, -0.1845, -0.0053, -0.0140,  0.0053,  0.0027, -0.0139
1491852969.4100620747,1491852969.4124870300, -0.1845, -0.0053, -0.0140,  0.0053,  0.0027, -0.0139
1491852969.4128649235,1491852969.4153048992, -0.1871, -0.0043, -0.0090,  0.0053,  0.0027, -0.0139
1491852969.4156830311,1491852969.4181120396, -0.1871, -0.0043, -0.0090,  0.0023,  0.0002, -0.0132
1491852969.4184889793,1491852969.4209110737, -0.1871, -0.0043, -0.0090,  0.0023,  0.0002, -0.0132
1491852969.4212899208,1491852969.4237139225, -0.1871, -0.0043, -0.0090,  0.0023,  0.0002, -0.0132
1491852969.4241011143,1491852969.4265279770, -0.1871, -0.0043, -0.0090, -0.0009, -0.0010, -0.0142
1491852969.4269049168,1491852969.4293370247, -0.1871, -0.0043, -0.0090, -0.0009, -0.0010, -0.0142
1491852969.4297161102,1491852969.4321429729, -0.1871, -0.0043, -0.0090, -0.0009, -0.0010, -0.0142
1491852969.4325189590,1491852969.4349179268, -0.1876, -0.0057, -0.0051, -0.0009, -0.0010, -0.0142
1491852969.4352879524,1491852969.4375920296, -0.1876, -0.0057, -0.0051, -0.0022, -0.0004, -0.0125
1491852969.4379620552,1491852969.4402639866, -0.1876, -0.0057, -0.0051, -0.0022, -0.0004, -0.0125
1491852969.4406340122,1491852969.4429380894, -0.1876, -0.0057, -0.0051, -0.0022, -0.0004, -0.0125
1491852969.4433090687,1491852969.4457199574, -0.1876, -0.0057, -0.0051, -0.0022, -0.0004, -0.0125
1491852969.4460968971,1491852969.4485220909, -0.1876, -0.0057, -0.0051, -0.0072,  0.0009, -0.0130
1491852969.4489009380,1491852969.4513249397, -0.1876, -0.0057, -0.0051, -0.0072,  0.0009, -0.0130
1491852969.4517040253,1491852969.4541399479, -0.1873, -0.0031, -0.0050, -0.0072,  0.0009, -0.0130
1491852969.4545199871,1491852969.4569458961, -0.1873, -0.0031, -0.0050, -0.0072,  0.0009, -0.0132
1491852969.4573230743,1491852969.4597508907, -0.1873, -0.0031, -0.0050, -0.0107,  0.0021, -0.0132
1491852969.4601271152,1491852969.4625599384, -0.1873, -0.0031, -0.0050, -0.0107,  0.0021, -0.0132
1491852969.4629390240,1491852969.4653830528, -0.1873, -0.0031, -0.0050, -0.0107,  0.0021, -0.0132
1491852969.4657618999,1491852969.4681880474, -0.1873, -0.0031, -0.0050, -0.0143,  0.0031, -0.0132
1491852969.4685649872,1491852969.4709959030, -0.1873, -0.0031, -0.0050, -0.0143,  0.0031, -0.0132
1491852969.4713730812,1491852969.4738008976, -0.1879, -0.0058, -0.0072, -0.0143,  0.0031, -0.0132
1491852969.4741849899,1491852969.4766130447, -0.1879, -0.0058, -0.0072, -0.0143,  0.0031, -0.0132
1491852969.4769890308,1491852969.4794180393, -0.1879, -0.0058, -0.0072, -0.0208,  0.0041, -0.0131
1491852969.4797959328,1491852969.4822280407, -0.1879, -0.0058, -0.0072, -0.0208,  0.0041, -0.0131
1491852969.4826080799,1491852969.4850449562, -0.1879, -0.0058, -0.0072, -0.0208,  0.0041, -0.0131
1491852969.4854149818,1491852969.4877150059, -0.1879, -0.0058, -0.0072, -0.0208,  0.0041, -0.0125
1491852969.4880859852,1491852969.4903860092, -0.1879, -0.0058, -0.0072, -0.0273,  0.0040, -0.0125
1491852969.4907560349,1491852969.4930570126, -0.1879, -0.0039, -0.0064, -0.0273,  0.0040, -0.0125
1491852969.4935309887,1491852969.4958400726, -0.1873, -0.0039, -0.0064, -0.0273,  0.0040, -0.0125
1491852969.4962120056,1491852969.4985029697, -0.1873, -0.0039, -0.0064, -0.0298,  0.0054, -0.0103
1491852969.4988710880,1491852969.5011780262, -0.1873, -0.0039, -0.0064, -0.0298,  0.0054, -0.0103
1491852969.5015480518,1491852969.5038409233, -0.1873, -0.0039, -0.0064, -0.0298,  0.0054, -0.0103
1491852969.5042169094,1491852969.5066370964, -0.1873, -0.0039, -0.0064, -0.0298,  0.0054, -0.0103
1491852969.5070140362,1491852969.5094299316, -0.1873, -0.0039, -0.0064, -0.0240,  0.0060, -0.0092
1491852969.5098090172,1491852969.5122370720, -0.1873, -0.0039, -0.0142, -0.0240,  0.0060, -0.0092
1491852969.5126159191,1491852969.5150790215, -0.1883, -0.0043, -0.0107, -0.0240,  0.0060, -0.0092
1491852969.5154569149,1491852969.5178809166, -0.1883, -0.0043, -0.0107, -0.0240,  0.0060, -0.0092
1491852969.5182590485,1491852969.5206849575, -0.1883, -0.0043, -0.0107, -0.0200,  0.0052, -0.0083
1491852969.5210640430,1491852969.5234820843, -0.1883, -0.0043, -0.0107, -0.0200,  0.0052, -0.0083
1491852969.5238590240,1491852969.5262980461, -0.1883, -0.0043, -0.0107, -0.0200,  0.0052, -0.0083
1491852969.5266749859,1491852969.5291020870, -0.1883, -0.0043, -0.0107, -0.0200,  0.0053, -0.0076
1491852969.5294799805,1491852969.5319070816, -0.1883, -0.0043, -0.0029, -0.0170,  0.0053, -0.0076
1491852969.5322859287,1491852969.5346949100, -0.1896, -0.0049, -0.0045, -0.0170,  0.0053, -0.0076
1491852969.5350658894,1491852969.5373620987, -0.1896, -0.0049, -0.0045, -0.0170,  0.0053, -0.0076
1491852969.5377309322,1491852969.5400309563, -0.1896, -0.0049, -0.0045, -0.0149,  0.0068, -0.0062
1491852969.5404009819,1491852969.5427010059, -0.1896, -0.0049, -0.0045, -0.0149,  0.0068, -0.0062
1491852969.5430710316,1491852969.5454959869, -0.1896, -0.0049, -0.0045, -0.0149,  0.0068, -0.0062
1491852969.5458729267,1491852969.5482909679, -0.1896, -0.0049, -0.0045, -0.0149,  0.0068, -0.0062
1491852969.5486669540,1491852969.5510931015, -0.1896, -0.0049, -0.0045, -0.0117,  0.0094, -0.0052
1491852969.5514690876,1491852969.5538918972, -0.1912, -0.0047, -0.0022, -0.0117,  0.0094, -0.0052
1491852969.5542800426,1491852969.5567069054, -0.1912, -0.0047, -0.0022, -0.0117,  0.0094, -0.0052
1491852969.5570840836,1491852969.5595109463, -0.1912, -0.0047, -0.0022, -0.0117,  0.0094, -0.0042
1491852969.5598869324,1491852969.5623109341, -0.1912, -0.0047, -0.0022, -0.0086,  0.0128, -0.0042
1491852969.5626900196,1491852969.5651259422, -0.1912, -0.0047, -0.0022, -0.0086,  0.0128, -0.0042
1491852969.5655019283,1491852969.5679318905, -0.1912, -0.0047, -0.0022, -0.0086,  0.0128, -0.0042
1491852969.5683081150,1491852969.5707330704, -0.1912, -0.0047, -0.0022, -0.0060,  0.0169, -0.0033
1491852969.5711100101,1491852969.5735321045, -0.1907, -0.0042, -0.0013, -0.0060,  0.0169, -0.0033
1491852969.5739099979,1491852969.5763490200, -0.1907, -0.0042, -0.0013, -0.0060,  0.0169, -0.0033
1491852969.5767269135,1491852969.5791549683, -0.1907, -0.0042, -0.0013, -0.0060,  0.0169, -0.0033
1491852969.5795331001,1491852969.5819571018, -0.1907, -0.0042, -0.0013, -0.0044,  0.0206, -0.0020
1491852969.5823349953,1491852969.5847458839, -0.1907, -0.0042, -0.0013, -0.0044,  0.0206, -0.0020
1491852969.5851171017,1491852969.5874180794, -0.1907, -0.0042, -0.0013, -0.0044,  0.0206, -0.0020
1491852969.5877881050,1491852969.5900890827, -0.1907, -0.0042, -0.0013, -0.0044,  0.0206,  0.0059
1491852969.5904591084,1491852969.5927538872, -0.1911, -0.0049, -0.0029, -0.0046,  0.0238,  0.0001
1491852969.5931251049,1491852969.5955278873, -0.1911, -0.0049, -0.0029, -0.0046,  0.0238,  0.0001
1491852969.5959069729,1491852969.5983259678, -0.1911, -0.0049, -0.0029, -0.0046,  0.0238,  0.0001
1491852969.5987019539,1491852969.6011219025, -0.1911, -0.0049, -0.0029, -0.0046,  0.0283,  0.0031
1491852969.6014969349,1491852969.6039249897, -0.1911, -0.0049, -0.0029, -0.0017,  0.0283,  0.0031
1491852969.6043019295,1491852969.6067268848, -0.1911, -0.0049, -0.0029, -0.0017,  0.0283,  0.0031
1491852969.6071059704,1491852969.6095340252, -0.1911, -0.0049, -0.0029, -0.0017,  0.0283,  0.0031
1491852969.6100258827,1491852969.6124560833, -0.1906, -0.0056, -0.0029, -0.0007,  0.0309,  0.0053
1491852969.6128349304,1491852969.6152720451, -0.1906, -0.0056, -0.0029, -0.0007,  0.0309,  0.0053
1491852969.6156508923,1491852969.6180760860, -0.1906, -0.0056, -0.0029, -0.0007,  0.0309,  0.0053
1491852969.6184530258,1491852969.6208770275, -0.1906, -0.0056, -0.0029, -0.0007,  0.0309,  0.0053
1491852969.6212539673,1491852969.6236789227, -0.1906, -0.0056, -0.0029,  0.0003,  0.0335,  0.0083
1491852969.6240670681,1491852969.6264901161, -0.1906, -0.0056, -0.0029,  0.0003,  0.0335,  0.0083
1491852969.6268670559,1491852969.6292910576, -0.1906, -0.0056, -0.0029,  0.0003,  0.0335,  0.0083
1491852969.6296699047,1491852969.6320910454, -0.1906, -0.0059, -0.0087, -0.0075,  0.0370,  0.0134
1491852969.6324679852,1491852969.6348679066, -0.1917, -0.0059, -0.0087, -0.0026,  0.0370,  0.0134
1491852969.6352400780,1491852969.6375370026, -0.1917, -0.0059, -0.0087, -0.0026,  0.0370,  0.0134
1491852969.6379070282,1491852969.6402099133, -0.1917, -0.0059, -0.0087, -0.0026,  0.0370,  0.0134
1491852969.6405808926,1491852969.6428830624, -0.1917, -0.0059, -0.0087, -0.0033,  0.0396,  0.0172
1491852969.6432540417,1491852969.6456980705, -0.1917, -0.0059, -0.0087, -0.0033,  0.0396,  0.0172
1491852969.6460769176,1491852969.6484999657, -0.1917, -0.0059, -0.0087, -0.0033,  0.0396,  0.0172
1491852969.6488780975,1491852969.6513071060, -0.1917, -0.0059, -0.0099, -0.0033,  0.0396,  0.0172
1491852969.6516869068,1491852969.6541221142, -0.1930, -0.0073, -0.0099, -0.0071,  0.0416,  0.0228
1491852969.6544990540,1491852969.6569280624, -0.1930, -0.0073, -0.0099, -0.0071,  0.0416,  0.0228
1491852969.6573069096,1491852969.6597290039, -0.1930, -0.0073, -0.0099, -0.0071,  0.0416,  0.0228
1491852969.6601059437,1491852969.6625299454, -0.1930, -0.0073, -0.0099, -0.0071,  0.0416,  0.0260
1491852969.6629090309,1491852969.6653480530, -0.1930, -0.0073, -0.0099, -0.0110,  0.0417,  0.0260
1491852969.6657249928,1491852969.6681480408, -0.1930, -0.0073, -0.0099, -0.0110,  0.0417,  0.0260
1491852969.6685240269,1491852969.6709530354, -0.1930, -0.0073, -0.0142, -0.0110,  0.0417,  0.0260
1491852969.6713299751,1491852969.6737530231, -0.1951, -0.0085, -0.0142, -0.0161,  0.0417,  0.0288
1491852969.6741390228,1491852969.6765670776, -0.1951, -0.0085, -0.0142, -0.0161,  0.0417,  0.0288
1491852969.6769440174,1491852969.6793699265, -0.1951, -0.0085, -0.0142, -0.0161,  0.0417,  0.0288
1491852969.6797471046,1491852969.6821720600, -0.1951, -0.0085, -0.0142, -0.0161,  0.0417,  0.0288
1491852969.6825470924,1491852969.6849439144, -0.1951, -0.0085, -0.0142, -0.0160,  0.0414,  0.0330
1491852969.6853139400,1491852969.6876130104, -0.1951, -0.0085, -0.0142, -0.0160,  0.0414,  0.0330
1491852969.6879830360,1491852969.6902821064, -0.1951, -0.0085, -0.0142, -0.0160,  0.0414,  0.0330
1491852969.6906509399,1491852969.6929500103, -0.2058, -0.0162, -0.0158, -0.0160,  0.0414,  0.0330
1491852969.6933178902,1491852969.6957230568, -0.2058, -0.0162, -0.0158, -0.0128,  0.0403,  0.0370
1491852969.6960980892,1491852969.6985220909, -0.2058, -0.0162, -0.0158, -0.0128,  0.0403,  0.0370
1491852969.6988968849,1491852969.7013230324, -0.2058, -0.0162, -0.0158, -0.0128,  0.0403,  0.0370
1491852969.7016999722,1491852969.7041358948, -0.2058, -0.0162, -0.0158, -0.0206,  0.0412,  0.0392
1491852969.7045130730,1491852969.7069370747, -0.2058, -0.0162, -0.0158, -0.0202,  0.0412,  0.0392
1491852969.7073130608,1491852969.7097361088, -0.2058, -0.0162, -0.0158, -0.0202,  0.0412,  0.0392
1491852969.7101140022,1491852969.7125430107, -0.2035, -0.0050, -0.0253, -0.0202,  0.0412,  0.0392
1491852969.7129199505,1491852969.7153580189, -0.2035, -0.0050, -0.0253, -0.0291,  0.0429,  0.0388
1491852969.7157349586,1491852969.7181560993, -0.2035, -0.0050, -0.0253, -0.0291,  0.0429,  0.0388
1491852969.7185308933,1491852969.7209599018, -0.2035, -0.0050, -0.0253, -0.0291,  0.0429,  0.0388
1491852969.7213389874,1491852969.7237699032, -0.2035, -0.0050, -0.0253, -0.0291,  0.0429,  0.0388
1491852969.7241559029,1491852969.7265739441, -0.2035, -0.0050, -0.0253, -0.0435,  0.0378,  0.0419
1491852969.7270600796,1491852969.7294900417, -0.2035, -0.0050, -0.0253, -0.0435,  0.0378,  0.0419
1491852969.7298688889,1491852969.7322950363, -0.2212,  0.0031, -0.0103, -0.0435,  0.0378,  0.0419
1491852969.7326719761,1491852969.7350599766, -0.2212,  0.0031, -0.0103, -0.0435,  0.0192,  0.0565
1491852969.7354290485,1491852969.7377340794, -0.2212,  0.0031, -0.0103, -0.0454,  0.0192,  0.0565
1491852969.7381029129,1491852969.7403988838, -0.2212,  0.0031, -0.0103, -0.0454,  0.0192,  0.0565
1491852969.7407701015,1491852969.7430679798, -0.2212,  0.0031, -0.0103, -0.0454,  0.0192,  0.0565
1491852969.7434370518,1491852969.7457869053, -0.2212,  0.0031, -0.0103, -0.0181,  0.0060,  0.0674
1491852969.7461569309,1491852969.7484540939, -0.2212,  0.0031, -0.0103, -0.0181,  0.0060,  0.0674
1491852969.7488229275,1491852969.7511289120, -0.2566, -0.0599,  0.0060, -0.0181,  0.0060,  0.0674
1491852969.7514979839,1491852969.7537989616, -0.2566, -0.0599,  0.0060, -0.0181,  0.0060,  0.0674
1491852969.7541849613,1491852969.7566170692, -0.2566, -0.0599,  0.0060, -0.0199,  0.0294,  0.0915
1491852969.7569949627,1491852969.7594239712, -0.2566, -0.0599,  0.0060, -0.0199,  0.0294,  0.0915
1491852969.7597999573,1491852969.7622280121, -0.2566, -0.0599,  0.0060, -0.0199,  0.0294,  0.0915
1491852969.7626049519,1491852969.7650740147, -0.2566, -0.0599,  0.0060, -0.0199,  0.0294,  0.1071
1491852969.7654531002,1491852969.7678740025, -0.2566, -0.0599,  0.0060, -0.0324,  0.0420,  0.1080
1491852969.7682518959,1491852969.7706780434, -0.2254, -0.0132, -0.0015, -0.0324,  0.0420,  0.1080
1491852969.7710549831,1491852969.7734820843, -0.2190, -0.0132, -0.0015, -0.0324,  0.0420,  0.1080
1491852969.7738609314,1491852969.7762908936, -0.2190, -0.0132, -0.0015, -0.0324,  0.0466,  0.1131
1491852969.7766709328,1491852969.7790989876, -0.2190, -0.0132, -0.0015, -0.0385,  0.0466,  0.1131
1491852969.7794749737,1491852969.7818989754, -0.2190, -0.0132, -0.0015, -0.0385,  0.0466,  0.1131
1491852969.7822759151,1491852969.7846810818, -0.2190, -0.0132, -0.0015, -0.0385,  0.0466,  0.1131
1491852969.7850511074,1491852969.7873508930, -0.2190, -0.0132, -0.0015, -0.0345,  0.0564,  0.1060
1491852969.7877221107,1491852969.7900218964, -0.2190, -0.0288, -0.0105, -0.0345,  0.0564,  0.1060
1491852969.7903919220,1491852969.7926900387, -0.1946, -0.0287, -0.0105, -0.0345,  0.0564,  0.1060
1491852969.7930591106,1491852969.7954800129, -0.1946, -0.0287, -0.0105, -0.0345,  0.0564,  0.1060
1491852969.7958559990,1491852969.7982819080, -0.1946, -0.0287, -0.0105, -0.0289,  0.0609,  0.0920
1491852969.7986590862,1491852969.8010809422, -0.1946, -0.0287, -0.0105, -0.0289,  0.0609,  0.0920
1491852969.8014569283,1491852969.8038759232, -0.1946, -0.0287, -0.0105, -0.0289,  0.0609,  0.0920
1491852969.8042609692,1491852969.8066849709, -0.1946, -0.0287, -0.0105, -0.0289,  0.0609,  0.0798
1491852969.8070600033,1491852969.8094899654, -0.1946, -0.0287, -0.0105, -0.0270,  0.0595,  0.0798
1491852969.8098659515,1491852969.8122889996, -0.1882, -0.0287, -0.0121, -0.0270,  0.0595,  0.0798
1491852969.8126640320,1491852969.8151030540, -0.1882, -0.0287, -0.0121, -0.0270,  0.0595,  0.0798
1491852969.8154790401,1491852969.8179080486, -0.1882, -0.0287, -0.0121, -0.0201,  0.0659,  0.0678
1491852969.8182849884,1491852969.8207139969, -0.1882, -0.0287, -0.0121, -0.0201,  0.0659,  0.0678
1491852969.8210909367,1491852969.8235199451, -0.1882, -0.0287, -0.0121, -0.0201,  0.0659,  0.0678
1491852969.8238959312,1491852969.8262140751, -0.1882, -0.0287, -0.0121, -0.0201,  0.0659,  0.0678
1491852969.8265819550,1491852969.8288810253, -0.1882, -0.0287, -0.0121, -0.0222,  0.0626,  0.0491
1491852969.8292489052,1491852969.8315498829, -0.1687, -0.0497, -0.0106, -0.0222,  0.0626,  0.0491
1491852969.8319180012,1491852969.8342850208, -0.1687, -0.0497, -0.0106, -0.0222,  0.0626,  0.0491
1491852969.8346610069,1491852969.8370900154, -0.1687, -0.0497, -0.0106, -0.0222,  0.0626,  0.0334
1491852969.8374650478,1491852969.8398940563, -0.1687, -0.0497, -0.0106, -0.0301,  0.0536,  0.0329
1491852969.8402690887,1491852969.8426918983, -0.1687, -0.0497, -0.0106, -0.0301,  0.0536,  0.0329
1491852969.8431749344,1491852969.8456089497, -0.1687, -0.0497, -0.0106, -0.0301,  0.0536,  0.0329
1491852969.8459858894,1491852969.8484120369, -0.1687, -0.0497, -0.0106, -0.0356,  0.0468,  0.0208
1491852969.8487861156,1491852969.8512160778, -0.1598, -0.0418, -0.0097, -0.0356,  0.0468,  0.0208
1491852969.8515930176,1491852969.8540589809, -0.1598, -0.0418, -0.0097, -0.0356,  0.0468,  0.0208
1491852969.8544409275,1491852969.8568670750, -0.1598, -0.0418, -0.0097, -0.0356,  0.0468,  0.0208
1491852969.8572440147,1491852969.8596680164, -0.1598, -0.0418, -0.0097, -0.0381,  0.0385,  0.0096
1491852969.8600440025,1491852969.8624711037, -0.1598, -0.0418, -0.0097, -0.0381,  0.0385,  0.0096
1491852969.8628499508,1491852969.8652250767, -0.1598, -0.0418, -0.0097, -0.0381,  0.0385,  0.0096
1491852969.8655951023,1491852969.8678970337, -0.1598, -0.0418, -0.0097, -0.0381,  0.0385, -0.0060
1491852969.8682661057,1491852969.8705699444, -0.1625, -0.0403, -0.0036, -0.0402,  0.0318, -0.0012
1491852969.8709390163,1491852969.8732409477, -0.1625, -0.0403, -0.0036, -0.0402,  0.0318, -0.0012
1491852969.8736109734,1491852969.8759129047, -0.1625, -0.0403, -0.0036, -0.0402,  0.0318, -0.0012
1491852969.8762850761,1491852969.8785851002, -0.1625, -0.0403, -0.0036, -0.0402,  0.0318, -0.0143
1491852969.8789529800,1491852969.8812510967, -0.1625, -0.0403, -0.0036, -0.0428,  0.0286, -0.0143
1491852969.8816199303,1491852969.8839190006, -0.1625, -0.0403, -0.0036, -0.0428,  0.0286, -0.0143
1491852969.8842940331,1491852969.8867158890, -0.1625, -0.0403, -0.0036, -0.0428,  0.0286, -0.0143
1491852969.8870940208,1491852969.8895139694, -0.1625, -0.0373, -0.0014, -0.0441,  0.0250, -0.0269
1491852969.8898909092,1491852969.8923170567, -0.1599, -0.0373, -0.0014, -0.0441,  0.0250, -0.0269
1491852969.8926930428,1491852969.8951289654, -0.1599, -0.0373, -0.0014, -0.0441,  0.0250, -0.0269
1491852969.8955059052,1491852969.8979310989, -0.1599, -0.0373, -0.0014, -0.0441,  0.0250, -0.0269
1491852969.8983089924,1491852969.9007298946, -0.1599, -0.0373, -0.0014, -0.0451,  0.0208, -0.0396
1491852969.9011058807,1491852969.9035270214, -0.1599, -0.0373, -0.0014, -0.0451,  0.0208, -0.0396
1491852969.9039020538,1491852969.9063379765, -0.1599, -0.0373, -0.0014, -0.0451,  0.0208, -0.0396
1491852969.9067139626,1491852969.9091370106, -0.1599, -0.0374,  0.0020, -0.0451,  0.0208, -0.0474
1491852969.9095139503,1491852969.9119360447, -0.1584, -0.0374,  0.0020, -0.0430,  0.0154, -0.0526
1491852969.9123129845,1491852969.9147219658, -0.1584, -0.0374,  0.0020, -0.0430,  0.0154, -0.0526
1491852969.9150919914,1491852969.9173960686, -0.1584, -0.0374,  0.0020, -0.0430,  0.0154, -0.0526
1491852969.9177649021,1491852969.9200670719, -0.1584, -0.0374,  0.0020, -0.0430,  0.0093, -0.0645
1491852969.9204370975,1491852969.9227359295, -0.1584, -0.0374,  0.0020, -0.0408,  0.0093, -0.0645
1491852969.9231069088,1491852969.9255239964, -0.1584, -0.0374,  0.0020, -0.0408,  0.0093, -0.0645
1491852969.9258999825,1491852969.9283280373, -0.1584, -0.0374,  0.0020, -0.0408,  0.0093, -0.0645
1491852969.9287049770,1491852969.9311299324, -0.1590, -0.0349,  0.0063, -0.0363,  0.0033, -0.0756
1491852969.9315071106,1491852969.9339299202, -0.1590, -0.0349,  0.0063, -0.0363,  0.0033, -0.0756
1491852969.9343070984,1491852969.9367349148, -0.1590, -0.0349,  0.0063, -0.0363,  0.0033, -0.0756
1491852969.9371130466,1491852969.9395380020, -0.1590, -0.0349,  0.0063, -0.0363,  0.0033, -0.0756
1491852969.9399149418,1491852969.9423420429, -0.1590, -0.0349,  0.0063, -0.0310, -0.0023, -0.0851
1491852969.9427208900,1491852969.9451630116, -0.1590, -0.0349,  0.0063, -0.0310, -0.0023, -0.0851
1491852969.9455389977,1491852969.9479680061, -0.1590, -0.0349,  0.0063, -0.0310, -0.0023, -0.0851
1491852969.9483449459,1491852969.9507739544, -0.1647, -0.0320,  0.0097, -0.0310, -0.0023, -0.0958
1491852969.9511508942,1491852969.9535779953, -0.1647, -0.0320,  0.0097, -0.0239, -0.0055, -0.0958
1491852969.9539530277,1491852969.9563870430, -0.1647, -0.0320,  0.0097, -0.0239, -0.0055, -0.0958
1491852969.9567658901,1491852969.9591999054, -0.1647, -0.0320,  0.0097, -0.0239, -0.0055, -0.0958
1491852969.9596819878,1491852969.9621090889, -0.1647, -0.0320,  0.0097, -0.0163, -0.0099, -0.1064
1491852969.9624879360,1491852969.9649391174, -0.1647, -0.0320,  0.0097, -0.0163, -0.0099, -0.1064
1491852969.9653100967,1491852969.9676079750, -0.1647, -0.0320,  0.0097, -0.0163, -0.0099, -0.1064
1491852969.9679799080,1491852969.9702749252, -0.1664, -0.0269,  0.0138, -0.0163, -0.0099, -0.1064
1491852969.9706439972,1491852969.9729468822, -0.1664, -0.0269,  0.0138, -0.0082, -0.0134, -0.1172
1491852969.9733169079,1491852969.9756360054, -0.1664, -0.0269,  0.0138, -0.0082, -0.0134, -0.1172
1491852969.9760060310,1491852969.9783039093, -0.1664, -0.0269,  0.0138, -0.0082, -0.0134, -0.1172
1491852969.9786739349,1491852969.9809710979, -0.1664, -0.0269,  0.0138, -0.0082, -0.0134, -0.1172
1491852969.9813408852,1491852969.9836359024, -0.1664, -0.0269,  0.0138, -0.0021, -0.0178, -0.1292
1491852969.9840049744,1491852969.9865090847, -0.1664, -0.0269,  0.0138, -0.0021, -0.0178, -0.1292
1491852969.9868879318,1491852969.9893140793, -0.1681, -0.0243,  0.0128, -0.0021, -0.0178, -0.1292
1491852969.9896900654,1491852969.9921159744, -0.1681, -0.0243,  0.0128, -0.0021, -0.0237, -0.1427
1491852969.9924919605,1491852969.9949319363, -0.1681, -0.0243,  0.0128,  0.0054, -0.0237, -0.1427
1491852969.9953091145,1491852969.9977309704, -0.1681, -0.0243,  0.0128,  0.0054, -0.0237, -0.1427
1491852969.9981100559,1491852970.0005331039, -0.1681, -0.0243,  0.0128,  0.0054, -0.0237, -0.1427
1491852970.0009100437,1491852970.0033369064, -0.1681, -0.0243,  0.0128,  0.0124, -0.0318, -0.1566
1491852970.0037109852,1491852970.0061500072, -0.1681, -0.0243,  0.0128,  0.0124, -0.0318, -0.1566
1491852970.0065259933,1491852970.0089468956, -0.1731, -0.0313,  0.0110,  0.0124, -0.0318, -0.1566
1491852970.0093228817,1491852970.0117509365, -0.1731, -0.0313,  0.0110,  0.0124, -0.0318, -0.1566
1491852970.0121269226,1491852970.0145421028, -0.1731, -0.0313,  0.0110,  0.0170, -0.0411, -0.1694
1491852970.0149118900,1491852970.0172119141, -0.1731, -0.0313,  0.0110,  0.0170, -0.0411, -0.1694
1491852970.0175819397,1491852970.0198760033, -0.1731, -0.0313,  0.0110,  0.0170, -0.0411, -0.1694
1491852970.0202469826,1491852970.0225450993, -0.1731, -0.0313,  0.0110,  0.0170, -0.0411, -0.1797
1491852970.0229129791,1491852970.0253589153, -0.1731, -0.0313,  0.0110,  0.0185, -0.0490, -0.1797
1491852970.0257349014,1491852970.0281629562, -0.1731, -0.0367,  0.0071,  0.0185, -0.0490, -0.1797
1491852970.0285389423,1491852970.0309638977, -0.1812, -0.0367,  0.0071,  0.0185, -0.0490, -0.1797
1491852970.0313439369,1491852970.0337679386, -0.1812, -0.0367,  0.0071,  0.0186, -0.0557, -0.1880
1491852970.0341539383,1491852970.0365788937, -0.1812, -0.0367,  0.0071,  0.0186, -0.0557, -0.1880
1491852970.0369560719,1491852970.0393860340, -0.1812, -0.0367,  0.0071,  0.0186, -0.0557, -0.1880
1491852970.0397660732,1491852970.0421860218, -0.1812, -0.0367,  0.0071,  0.0186, -0.0557, -0.1880
1491852970.0425629616,1491852970.0449929237, -0.1812, -0.0367,  0.0071,  0.0167, -0.0606, -0.1944
1491852970.0453689098,1491852970.0477960110, -0.1812, -0.0367,  0.0056,  0.0167, -0.0606, -0.1944
1491852970.0481739044,1491852970.0506029129, -0.1903, -0.0368,  0.0056,  0.0167, -0.0606, -0.1944
1491852970.0509810448,1491852970.0534069538, -0.1903, -0.0368,  0.0056,  0.0167, -0.0606, -0.1984
1491852970.0537838936,1491852970.0562140942, -0.1903, -0.0368,  0.0056,  0.0134, -0.0647, -0.1984
1491852970.0565900803,1491852970.0590169430, -0.1903, -0.0368,  0.0056,  0.0134, -0.0647, -0.1984
1491852970.0593938828,1491852970.0618169308, -0.1903, -0.0368,  0.0056,  0.0134, -0.0647, -0.1984
1491852970.0621941090,1491852970.0646369457, -0.1903, -0.0368,  0.0056,  0.0101, -0.0692, -0.2029
1491852970.0650069714,1491852970.0673079491, -0.1903, -0.0368,  0.0038,  0.0101, -0.0692, -0.2029
1491852970.0676760674,1491852970.0699789524, -0.1987, -0.0316,  0.0038,  0.0101, -0.0692, -0.2029
1491852970.0703489780,1491852970.0726521015, -0.1987, -0.0316,  0.0038,  0.0101, -0.0692, -0.2029
1491852970.0731229782,1491852970.0755109787, -0.1987, -0.0316,  0.0038,  0.0043, -0.0725, -0.2069
1491852970.0758869648,1491852970.0782990456, -0.1987, -0.0316,  0.0038,  0.0043, -0.0725, -0.2069
1491852970.0786740780,1491852970.0810840130, -0.1987, -0.0316,  0.0038,  0.0043, -0.0725, -0.2069
1491852970.0814599991,1491852970.0838708878, -0.1987, -0.0316,  0.0038,  0.0043, -0.0725, -0.2069
1491852970.0842568874,1491852970.0866699219, -0.1987, -0.0316,  0.0038,  0.0027, -0.0755, -0.2135
1491852970.0870449543,1491852970.0894570351, -0.1986, -0.0185,  0.0007,  0.0027, -0.0755, -0.2135
1491852970.0898320675,1491852970.0922420025, -0.1986, -0.0185,  0.0007,  0.0027, -0.0755, -0.2135
1491852970.0926170349,1491852970.0950920582, -0.1986, -0.0185,  0.0007,  0.0027, -0.0793, -0.2208
1491852970.0954670906,1491852970.0978538990, -0.1986, -0.0185,  0.0007,  0.0056, -0.0793, -0.2208
1491852970.0982270241,1491852970.1006119251, -0.1986, -0.0185,  0.0007,  0.0056, -0.0793, -0.2208
1491852970.1009879112,1491852970.1033699512, -0.1986, -0.0185,  0.0007,  0.0056, -0.0793, -0.2208
1491852970.1037418842,1491852970.1061620712, -0.1986, -0.0185,  0.0007,  0.0085, -0.0827, -0.2261
1491852970.1065399647,1491852970.1089680195, -0.2003, -0.0227, -0.0014,  0.0085, -0.0827, -0.2261
1491852970.1093459129,1491852970.1117680073, -0.2003, -0.0227, -0.0014,  0.0085, -0.0827, -0.2261
1491852970.1121459007,1491852970.1145648956, -0.2003, -0.0227, -0.0014,  0.0085, -0.0827, -0.2261
1491852970.1149361134,1491852970.1172358990, -0.2003, -0.0227, -0.0014,  0.0123, -0.0853, -0.2271
1491852970.1176059246,1491852970.1199059486, -0.2003, -0.0227, -0.0014,  0.0123, -0.0853, -0.2271
1491852970.1202769279,1491852970.1225759983, -0.2003, -0.0227, -0.0014,  0.0123, -0.0853, -0.2271
1491852970.1229460239,1491852970.1252689362, -0.2003, -0.0227, -0.0014,  0.0123, -0.0853, -0.2249
1491852970.1256380081,1491852970.1279399395, -0.2048, -0.0192, -0.0085,  0.0168, -0.0876, -0.2249
1491852970.1283090115,1491852970.1306068897, -0.2048, -0.0192, -0.0085,  0.0168, -0.0876, -0.2249
1491852970.1309759617,1491852970.1332728863, -0.2048, -0.0192, -0.0085,  0.0168, -0.0876, -0.2249
1491852970.1336429119,1491852970.1360991001, -0.2048, -0.0192, -0.0085,  0.0168, -0.0871, -0.2216
1491852970.1364779472,1491852970.1389050484, -0.2048, -0.0192, -0.0085,  0.0214, -0.0871, -0.2216
1491852970.1392819881,1491852970.1417050362, -0.2048, -0.0192, -0.0085,  0.0214, -0.0871, -0.2216
1491852970.1420838833,1491852970.1445178986, -0.2048, -0.0192, -0.0085,  0.0214, -0.0871, -0.2216
1491852970.1448960304,1491852970.1473159790, -0.2048, -0.0135, -0.0115,  0.0269, -0.0845, -0.2172
1491852970.1476919651,1491852970.1501209736, -0.2063, -0.0135, -0.0115,  0.0269, -0.0845, -0.2172
1491852970.1504960060,1491852970.1529231071, -0.2063, -0.0135, -0.0115,  0.0269, -0.0845, -0.2172
1491852970.1533010006,1491852970.1557300091, -0.2063, -0.0135, -0.0115,  0.0269, -0.0845, -0.2172
1491852970.1561059952,1491852970.1585280895, -0.2063, -0.0135, -0.0115,  0.0316, -0.0819, -0.2125
1491852970.1589050293,1491852970.1613309383, -0.2063, -0.0135, -0.0115,  0.0316, -0.0819, -0.2125
1491852970.1617081165,1491852970.1641430855, -0.2063, -0.0135, -0.0115,  0.0316, -0.0819, -0.2125
1491852970.1645119190,1491852970.1668109894, -0.2063, -0.0109, -0.0145,  0.0316, -0.0819, -0.2071
1491852970.1671779156,1491852970.1694729328, -0.2076, -0.0109, -0.0145,  0.0352, -0.0783, -0.2071
1491852970.1698410511,1491852970.1721429825, -0.2076, -0.0109, -0.0145,  0.0352, -0.0783, -0.2071
1491852970.1725111008,1491852970.1749079227, -0.2076, -0.0109, -0.0145,  0.0352, -0.0783, -0.2071
1491852970.1752879620,1491852970.1777129173, -0.2076, -0.0109, -0.0145,  0.0393, -0.0731, -0.1982
1491852970.1780900955,1491852970.1805160046, -0.2076, -0.0109, -0.0145,  0.0393, -0.0731, -0.1982
1491852970.1808929443,1491852970.1833150387, -0.2076, -0.0109, -0.0145,  0.0393, -0.0731, -0.1982
1491852970.1836910248,1491852970.1861259937, -0.2076, -0.0109, -0.0226,  0.0393, -0.0731, -0.1982
1491852970.1865029335,1491852970.1889328957, -0.2057, -0.0100, -0.0226,  0.0419, -0.0682, -0.1878
1491852970.1894180775,1491852970.1918458939, -0.2057, -0.0100, -0.0226,  0.0419, -0.0682, -0.1878
1491852970.1922221184,1491852970.1946570873, -0.2057, -0.0100, -0.0226,  0.0419, -0.0682, -0.1878
1491852970.1950340271,1491852970.1974580288, -0.2057, -0.0100, -0.0226,  0.0419, -0.0682, -0.1766
1491852970.1978330612,1491852970.2002561092, -0.2057, -0.0100, -0.0226,  0.0406, -0.0623, -0.1766
1491852970.2006299496,1491852970.2030570507, -0.2057, -0.0100, -0.0226,  0.0406, -0.0623, -0.1766
1491852970.2034349442,1491852970.2058670521, -0.2057, -0.0100, -0.0304,  0.0406, -0.0623, -0.1766
1491852970.2062430382,1491852970.2086679935, -0.2043, -0.0137, -0.0264,  0.0345, -0.0562, -0.1638
1491852970.2090430260,1491852970.2114670277, -0.2043, -0.0137, -0.0264,  0.0345, -0.0562, -0.1638
1491852970.2118439674,1491852970.2142679691, -0.2043, -0.0137, -0.0264,  0.0345, -0.0562, -0.1638
1491852970.2146360874,1491852970.2169399261, -0.2043, -0.0137, -0.0264,  0.0345, -0.0562, -0.1638
1491852970.2173080444,1491852970.2196071148, -0.2043, -0.0137, -0.0264,  0.0246, -0.0478, -0.1495
1491852970.2199749947,1491852970.2222759724, -0.2043, -0.0137, -0.0264,  0.0246, -0.0478, -0.1495
1491852970.2226428986,1491852970.2250030041, -0.2043, -0.0137, -0.0264,  0.0246, -0.0478, -0.1495
1491852970.2253799438,1491852970.2278039455, -0.2018, -0.0055, -0.0195,  0.0246, -0.0478, -0.1495
1491852970.2281799316,1491852970.2306079865, -0.2018, -0.0055, -0.0195,  0.0110, -0.0380, -0.1344
1491852970.2309861183,1491852970.2334120274, -0.2018, -0.0055, -0.0195,  0.0110, -0.0380, -0.1344
1491852970.2337911129,1491852970.2362270355, -0.2018, -0.0055, -0.0195,  0.0110, -0.0380, -0.1344
1491852970.2366039753,1491852970.2390310764, -0.2018, -0.0055, -0.0195,  0.0110, -0.0302, -0.1185
1491852970.2394099236,1491852970.2418329716, -0.2018, -0.0055, -0.0195,  0.0008, -0.0302, -0.1185
1491852970.2422089577,1491852970.2446939945, -0.2018, -0.0055, -0.0195,  0.0008, -0.0302, -0.1185
1491852970.2450718880,1491852970.2474989891, -0.1909,  0.0078, -0.0199,  0.0008, -0.0302, -0.1185
1491852970.2478790283,1491852970.2503080368, -0.1909,  0.0078, -0.0199, -0.0036, -0.0260, -0.0994
1491852970.2506849766,1491852970.2531070709, -0.1909,  0.0078, -0.0199, -0.0036, -0.0260, -0.0994
1491852970.2534849644,1491852970.2559220791, -0.1909,  0.0078, -0.0199, -0.0036, -0.0260, -0.0994
1491852970.2562980652,1491852970.2587239742, -0.1909,  0.0078, -0.0199, -0.0036, -0.0260, -0.0994
1491852970.2591021061,1491852970.2615320683, -0.1909,  0.0078, -0.0199, -0.0067, -0.0251, -0.0811
1491852970.2619109154,1491852970.2643370628, -0.1909,  0.0078, -0.0199, -0.0067, -0.0251, -0.0811
1491852970.2647080421,1491852970.2670049667, -0.1850,  0.0135, -0.0210, -0.0067, -0.0251, -0.0811
1491852970.2673749924,1491852970.2696700096, -0.1850,  0.0135, -0.0210, -0.0067, -0.0251, -0.0607
1491852970.2700400352,1491852970.2723391056, -0.1850,  0.0135, -0.0210, -0.0098, -0.0260, -0.0607
1491852970.2727079391,1491852970.2751090527, -0.1850,  0.0135, -0.0210, -0.0098, -0.0260, -0.0607
1491852970.2754869461,1491852970.2779090405, -0.1850,  0.0135, -0.0210, -0.0098, -0.0260, -0.0607
1491852970.2782859802,1491852970.2807080746, -0.1850,  0.0135, -0.0210, -0.0135, -0.0251, -0.0416
1491852970.2810840607,1491852970.2835099697, -0.1850,  0.0135, -0.0210, -0.0135, -0.0251, -0.0416
1491852970.2838859558,1491852970.2863249779, -0.1848,  0.0131, -0.0250, -0.0135, -0.0251, -0.0416
1491852970.2867000103,1491852970.2891230583, -0.1848,  0.0131, -0.0250, -0.0135, -0.0251, -0.0416
1491852970.2894980907,1491852970.2919290066, -0.1848,  0.0131, -0.0250, -0.0184, -0.0201, -0.0239
1491852970.2923049927,1491852970.2947390079, -0.1848,  0.0131, -0.0250, -0.0184, -0.0201, -0.0239
1491852970.2951140404,1491852970.2975370884, -0.1848,  0.0131, -0.0250, -0.0184, -0.0201, -0.0239
1491852970.2979130745,1491852970.3003389835, -0.1848,  0.0131, -0.0250, -0.0184, -0.0201, -0.0072
1491852970.3007159233,1491852970.3031399250, -0.1848,  0.0131, -0.0250, -0.0240, -0.0123, -0.0072
1491852970.3035180569,1491852970.3059539795, -0.1848,  0.0135, -0.0290, -0.0240, -0.0123, -0.0072
1491852970.3064389229,1491852970.3088650703, -0.1832,  0.0135, -0.0290, -0.0240, -0.0123, -0.0072
1491852970.3092410564,1491852970.3116669655, -0.1832,  0.0135, -0.0290, -0.0293, -0.0046,  0.0083
1491852970.3120460510,1491852970.3144619465, -0.1832,  0.0135, -0.0290, -0.0293, -0.0046,  0.0083
1491852970.3148310184,1491852970.3171360493, -0.1832,  0.0135, -0.0290, -0.0293, -0.0046,  0.0083
1491852970.3175070286,1491852970.3198020458, -0.1832,  0.0135, -0.0290, -0.0293, -0.0046,  0.0083
1491852970.3201699257,1491852970.3224730492, -0.1832,  0.0135, -0.0290, -0.0300,  0.0025,  0.0232
1491852970.3228430748,1491852970.3252029419, -0.1832,  0.0135, -0.0242, -0.0300,  0.0025,  0.0232
1491852970.3255810738,1491852970.3280100822, -0.1827,  0.0103, -0.0242, -0.0300,  0.0025,  0.0232
1491852970.3283860683,1491852970.3308100700, -0.1827,  0.0103, -0.0242, -0.0300,  0.0025,  0.0232
1491852970.3311851025,1491852970.3336079121, -0.1827,  0.0103, -0.0242, -0.0290,  0.0085,  0.0387
1491852970.3339869976,1491852970.3364250660, -0.1827,  0.0103, -0.0242, -0.0290,  0.0085,  0.0387
1491852970.3368010521,1491852970.3392250538, -0.1827,  0.0103, -0.0242, -0.0290,  0.0085,  0.0387
1491852970.3396019936,1491852970.3420250416, -0.1827,  0.0103, -0.0242, -0.0290,  0.0141,  0.0541
1491852970.3424019814,1491852970.3448960781, -0.1827,  0.0103, -0.0189, -0.0254,  0.0141,  0.0541
1491852970.3452720642,1491852970.3477001190, -0.1809,  0.0078, -0.0189, -0.0254,  0.0141,  0.0541
1491852970.3480761051,1491852970.3505020142, -0.1809,  0.0078, -0.0189, -0.0254,  0.0141,  0.0541
1491852970.3508770466,1491852970.3533029556, -0.1809,  0.0078, -0.0189, -0.0216,  0.0188,  0.0670
1491852970.3536810875,1491852970.3561189175, -0.1809,  0.0078, -0.0189, -0.0216,  0.0188,  0.0670
1491852970.3564960957,1491852970.3589260578, -0.1809,  0.0078, -0.0189, -0.0216,  0.0188,  0.0670
1491852970.3593010902,1491852970.3617229462, -0.1809,  0.0078, -0.0189, -0.0216,  0.0188,  0.0748
1491852970.3620998859,1491852970.3645191193, -0.1809,  0.0078, -0.0184, -0.0150,  0.0209,  0.0757
1491852970.3648889065,1491852970.3671839237, -0.1768,  0.0026, -0.0184, -0.0150,  0.0209,  0.0757
1491852970.3675529957,1491852970.3698511124, -0.1768,  0.0026, -0.0184, -0.0150,  0.0209,  0.0757
1491852970.3702199459,1491852970.3725180626, -0.1768,  0.0026, -0.0184, -0.0150,  0.0209,  0.0822
1491852970.3728890419,1491852970.3752501011, -0.1768,  0.0026, -0.0184, -0.0086,  0.0231,  0.0822
1491852970.3756220341,1491852970.3779211044, -0.1768,  0.0026, -0.0184, -0.0086,  0.0231,  0.0822
1491852970.3782930374,1491852970.3805940151, -0.1768,  0.0026, -0.0184, -0.0086,  0.0231,  0.0822
1491852970.3809649944,1491852970.3832631111, -0.1768,  0.0026, -0.0184, -0.0008,  0.0250,  0.0883
1491852970.3836319447,1491852970.3861050606, -0.2353, -0.0531, -0.0319, -0.0043,  0.0250,  0.0883
1491852970.3864820004,1491852970.3889100552, -0.2353, -0.0531, -0.0319, -0.0043,  0.0250,  0.0883
1491852970.3892869949,1491852970.3917100430, -0.2353, -0.0531, -0.0319, -0.0043,  0.0250,  0.0883
1491852970.3920860291,1491852970.3945250511, -0.2353, -0.0531, -0.0319,  0.0216,  0.0155,  0.0918
1491852970.3949000835,1491852970.3973240852, -0.2353, -0.0531, -0.0319,  0.0216,  0.0155,  0.0918
1491852970.3976991177,1491852970.4001209736, -0.2353, -0.0531, -0.0319,  0.0216,  0.0155,  0.0918
1491852970.4004979134,1491852970.4029319286, -0.2353, -0.0531, -0.0319,  0.0216,  0.0155,  0.0918
1491852970.4033050537,1491852970.4057440758, -0.1238, -0.1183,  0.0302,  0.0578,  0.0288,  0.0883
1491852970.4061210155,1491852970.4085500240, -0.1238, -0.1183,  0.0302,  0.0578,  0.0288,  0.0883
1491852970.4089260101,1491852970.4113469124, -0.1238, -0.1183,  0.0302,  0.0578,  0.0288,  0.0883
1491852970.4117228985,1491852970.4141581059, -0.1238, -0.1183,  0.0302,  0.0500,  0.0316,  0.0844
1491852970.4145269394,1491852970.4168241024, -0.1238, -0.1183,  0.0302,  0.0523,  0.0316,  0.0844
1491852970.4171938896,1491852970.4194951057, -0.1238, -0.1183,  0.0302,  0.0523,  0.0316,  0.0844
1491852970.4198629856,1491852970.4221599102, -0.1238, -0.1183,  0.0302,  0.0523,  0.0316,  0.0844
1491852970.4226410389,1491852970.4250030518, -0.2065, -0.1512,  0.0178,  0.0515,  0.0180,  0.1288
1491852970.4253799915,1491852970.4278008938, -0.2065, -0.1512,  0.0178,  0.0515,  0.0180,  0.1288
1491852970.4281780720,1491852970.4306020737, -0.2065, -0.1512,  0.0178,  0.0515,  0.0180,  0.1288
1491852970.4309780598,1491852970.4334061146, -0.2065, -0.1512,  0.0178,  0.0515,  0.0180,  0.1288
1491852970.4337821007,1491852970.4362039566, -0.2065, -0.1512,  0.0178,  0.0232,  0.0325,  0.1755
1491852970.4365808964,1491852970.4390060902, -0.2065, -0.1512,  0.0178,  0.0232,  0.0325,  0.1755
1491852970.4393808842,1491852970.4418129921, -0.2065, -0.1512,  0.0178,  0.0232,  0.0325,  0.1755
1491852970.4421899319,1491852970.4446630478, -0.1987, -0.0197, -0.0332,  0.0232,  0.0168,  0.2055
1491852970.4450390339,1491852970.4474670887, -0.1986, -0.0197, -0.0332, -0.0053,  0.0227,  0.2055
1491852970.4478430748,1491852970.4502739906, -0.1986, -0.0197, -0.0332, -0.0053,  0.0227,  0.2055
1491852970.4506509304,1491852970.4530730247, -0.1986, -0.0197, -0.0332, -0.0053,  0.0227,  0.2055
1491852970.4534499645,1491852970.4558858871, -0.1986, -0.0197, -0.0332, -0.0041,  0.0187,  0.1996
1491852970.4562599659,1491852970.4586830139, -0.1986, -0.0197, -0.0332, -0.0041,  0.0187,  0.1996
1491852970.4590590000,1491852970.4614839554, -0.1986, -0.0197, -0.0332, -0.0041,  0.0187,  0.1996
1491852970.4618599415,1491852970.4642848969, -0.1986, -0.0221,  0.0132, -0.0041,  0.0187,  0.1996
1491852970.4646549225,1491852970.4669539928, -0.1959, -0.0221,  0.0132,  0.0095,  0.0171,  0.1837
1491852970.4673249722,1491852970.4696290493, -0.1959, -0.0221,  0.0132,  0.0095,  0.0171,  0.1837
1491852970.4699990749,1491852970.4722979069, -0.1959, -0.0221,  0.0132,  0.0095,  0.0171,  0.1837
1491852970.4726669788,1491852970.4751110077, -0.1959, -0.0221,  0.0132,  0.0095,  0.0171,  0.1819
1491852970.4754920006,1491852970.4779219627, -0.1959, -0.0221,  0.0132,  0.0101,  0.0147,  0.1819
1491852970.4782979488,1491852970.4807229042, -0.1959, -0.0221,  0.0132,  0.0101,  0.0147,  0.1819
1491852970.4810979366,1491852970.4835219383, -0.1959, -0.0221,  0.0132,  0.0101,  0.0147,  0.1819
1491852970.4838960171,1491852970.4863379002, -0.2041, -0.0077,  0.0132,  0.0074,  0.0121,  0.1802
1491852970.4867188931,1491852970.4891440868, -0.2041, -0.0077,  0.0132,  0.0074,  0.0121,  0.1802
1491852970.4895229340,1491852970.4919500351, -0.2041, -0.0077,  0.0132,  0.0074,  0.0121,  0.1802
1491852970.4923279285,1491852970.4947319031, -0.2041, -0.0077,  0.0132,  0.0074,  0.0121,  0.1802
1491852970.4951050282,1491852970.4974019527, -0.2041, -0.0077,  0.0132,  0.0035,  0.0077,  0.1751
1491852970.4977738857,1491852970.5000729561, -0.2041, -0.0077,  0.0132,  0.0035,  0.0077,  0.1751
1491852970.5004439354,1491852970.5027449131, -0.2041, -0.0077,  0.0132,  0.0035,  0.0077,  0.1751
1491852970.5031158924,1491852970.5054640770, -0.1969, -0.0014,  0.0049,  0.0035,  0.0077,  0.1751
1491852970.5058341026,1491852970.5081338882, -0.1969, -0.0014,  0.0049, -0.0027,  0.0074,  0.1629
1491852970.5085051060,1491852970.5108048916, -0.1969, -0.0014,  0.0049, -0.0027,  0.0074,  0.1629
1491852970.5111780167,1491852970.5134770870, -0.1969, -0.0014,  0.0049, -0.0027,  0.0074,  0.1629
1491852970.5138471127,1491852970.5161859989, -0.1969, -0.0014,  0.0049, -0.0027,  0.0074,  0.1551
1491852970.5165560246,1491852970.5188550949, -0.1969, -0.0014,  0.0049, -0.0138,  0.0086,  0.1519
1491852970.5192239285,1491852970.5215220451, -0.1969, -0.0014,  0.0049, -0.0138,  0.0086,  0.1519
1491852970.5218930244,1491852970.5241999626, -0.1929, -0.0091,  0.0002, -0.0138,  0.0086,  0.1519
1491852970.5245780945,1491852970.5270049572, -0.1929, -0.0091,  0.0002, -0.0138,  0.0086,  0.1396
1491852970.5273830891,1491852970.5298120975, -0.1929, -0.0091,  0.0002, -0.0234,  0.0085,  0.1396
1491852970.5301890373,1491852970.5326180458, -0.1929, -0.0091,  0.0002, -0.0234,  0.0085,  0.1396
1491852970.5329940319,1491852970.5354609489, -0.1929, -0.0091,  0.0002, -0.0234,  0.0085,  0.1396
1491852970.5358390808,1491852970.5382618904, -0.1929, -0.0091,  0.0002, -0.0316,  0.0067,  0.1288
1491852970.5387558937,1491852970.5411810875, -0.1929, -0.0091,  0.0002, -0.0316,  0.0067,  0.1288
1491852970.5415599346,1491852970.5439910889, -0.1913,  0.0242, -0.0230, -0.0316,  0.0067,  0.1288
1491852970.5444180965,1491852970.5468440056, -0.1913,  0.0242, -0.0230, -0.0316,  0.0067,  0.1288
1491852970.5472230911,1491852970.5496509075, -0.1913,  0.0242, -0.0230, -0.0339,  0.0057,  0.1184
1491852970.5500290394,1491852970.5524590015, -0.1913,  0.0242, -0.0230, -0.0339,  0.0057,  0.1184
1491852970.5528359413,1491852970.5552709103, -0.1913,  0.0242, -0.0230, -0.0339,  0.0057,  0.1184
1491852970.5556490421,1491852970.5580720901, -0.1913,  0.0242, -0.0230, -0.0183,  0.0044,  0.1046
1491852970.5584480762,1491852970.5608749390, -0.1913,  0.0242, -0.0230, -0.0188,  0.0044,  0.1046
1491852970.5612521172,1491852970.5636780262, -0.1897,  0.0308,  0.0058, -0.0188,  0.0044,  0.1046
1491852970.5640649796,1491852970.5663619041, -0.1897,  0.0308,  0.0058, -0.0188,  0.0044,  0.1046
1491852970.5667340755,1491852970.5690259933, -0.1897,  0.0308,  0.0058, -0.0055,  0.0011,  0.0927
1491852970.5693960190,1491852970.5716989040, -0.1897,  0.0308,  0.0058, -0.0055,  0.0011,  0.0927
1491852970.5720698833,1491852970.5743849277, -0.1897,  0.0308,  0.0058, -0.0055,  0.0011,  0.0927
1491852970.5747630596,1491852970.5771958828, -0.1897,  0.0308,  0.0058, -0.0055,  0.0011,  0.0927
1491852970.5775749683,1491852970.5799999237, -0.1897,  0.0308,  0.0058,  0.0031,  0.0033,  0.0761
1491852970.5803749561,1491852970.5828011036, -0.1897,  0.0308,  0.0109,  0.0031,  0.0033,  0.0761
1491852970.5831770897,1491852970.5856049061, -0.1843,  0.0040,  0.0109,  0.0031,  0.0033,  0.0761
1491852970.5859820843,1491852970.5884170532, -0.1843,  0.0040,  0.0109,  0.0031,  0.0033,  0.0663
1491852970.5887949467,1491852970.5912199020, -0.1843,  0.0040,  0.0109, -0.0081,  0.0063,  0.0663
1491852970.5915980339,1491852970.5946741104, -0.1843,  0.0040,  0.0109, -0.0081,  0.0063,  0.0663
1491852970.5950479507,1491852970.5973439217, -0.1843,  0.0040,  0.0109, -0.0081,  0.0063,  0.0663
1491852970.5977160931,1491852970.6000049114, -0.1843,  0.0040,  0.0109, -0.0169,  0.0075,  0.0594
1491852970.6003749371,1491852970.6026670933, -0.1843,  0.0040,  0.0059, -0.0169,  0.0075,  0.0594
1491852970.6030371189,1491852970.6053330898, -0.1891,  0.0057,  0.0059, -0.0169,  0.0075,  0.0594
1491852970.6057031155,1491852970.6079990864, -0.1891,  0.0057,  0.0059, -0.0169,  0.0075,  0.0594
1491852970.6083679199,1491852970.6106660366, -0.1891,  0.0057,  0.0059, -0.0151,  0.0097,  0.0544
1491852970.6110370159,1491852970.6133348942, -0.1891,  0.0057,  0.0059, -0.0151,  0.0097,  0.0544
1491852970.6137061119,1491852970.6160230637, -0.1891,  0.0057,  0.0059, -0.0151,  0.0097,  0.0544
1491852970.6163930893,1491852970.6186859608, -0.1891,  0.0057,  0.0059, -0.0151,  0.0097,  0.0544
1491852970.6190550327,1491852970.6213500500, -0.1891,  0.0057,  0.0059, -0.0141,  0.0129,  0.0491
1491852970.6217200756,1491852970.6240139008, -0.1872, -0.0083,  0.0058, -0.0141,  0.0129,  0.0491
1491852970.6244308949,1491852970.6267271042, -0.1872, -0.0083,  0.0058, -0.0141,  0.0129,  0.0491
1491852970.6270990372,1491852970.6293919086, -0.1872, -0.0083,  0.0058, -0.0141,  0.0129,  0.0491
1491852970.6297619343,1491852970.6320590973, -0.1872, -0.0083,  0.0058, -0.0234,  0.0122,  0.0482
1491852970.6324288845,1491852970.6347739697, -0.1872, -0.0083,  0.0058, -0.0234,  0.0122,  0.0482
1491852970.6351540089,1491852970.6375839710, -0.1872, -0.0083,  0.0058, -0.0234,  0.0122,  0.0482
1491852970.6379609108,1491852970.6403939724, -0.1872, -0.0083,  0.0058, -0.0312,  0.0117,  0.0479
1491852970.6407730579,1491852970.6432020664, -0.1905,  0.0171,  0.0083, -0.0261,  0.0117,  0.0479
1491852970.6435780525,1491852970.6460130215, -0.1905,  0.0171,  0.0083, -0.0261,  0.0117,  0.0479
1491852970.6463890076,1491852970.6488161087, -0.1905,  0.0171,  0.0083, -0.0261,  0.0117,  0.0479
1491852970.6491940022,1491852970.6516230106, -0.1905,  0.0171,  0.0083, -0.0170,  0.0157,  0.0407
1491852970.6521050930,1491852970.6545290947, -0.1905,  0.0171,  0.0083, -0.0170,  0.0157,  0.0407
1491852970.6548988819,1491852970.6572051048, -0.1905,  0.0171,  0.0083, -0.0170,  0.0157,  0.0407
1491852970.6575739384,1491852970.6598780155, -0.1905,  0.0171,  0.0083, -0.0170,  0.0157,  0.0407
1491852970.6602480412,1491852970.6625421047, -0.1826, -0.0006,  0.0066, -0.0109,  0.0180,  0.0356
1491852970.6629130840,1491852970.6653161049, -0.1857, -0.0006,  0.0066, -0.0109,  0.0180,  0.0356
1491852970.6656939983,1491852970.6681079865, -0.1857, -0.0006,  0.0066, -0.0109,  0.0180,  0.0356
1491852970.6684830189,1491852970.6709001064, -0.1857, -0.0006,  0.0066, -0.0109,  0.0102,  0.0365
1491852970.6712779999,1491852970.6736888885, -0.1857, -0.0006,  0.0066, -0.0110,  0.0138,  0.0365
1491852970.6740739346,1491852970.6765520573, -0.1857, -0.0006,  0.0066, -0.0110,  0.0138,  0.0365
1491852970.6769289970,1491852970.6793498993, -0.1857, -0.0006,  0.0066, -0.0110,  0.0138,  0.0365
1491852970.6797249317,1491852970.6821370125, -0.1857,  0.0046,  0.0028, -0.0071,  0.0131,  0.0361
1491852970.6825160980,1491852970.6849339008, -0.1870,  0.0046,  0.0028, -0.0071,  0.0131,  0.0361
1491852970.6853480339,1491852970.6877748966, -0.1870,  0.0046,  0.0028, -0.0071,  0.0131,  0.0361
1491852970.6881530285,1491852970.6905748844, -0.1870,  0.0046,  0.0028, -0.0071,  0.0131,  0.0361
1491852970.6909520626,1491852970.6933739185, -0.1870,  0.0046,  0.0028, -0.0042,  0.0119,  0.0351
1491852970.6937520504,1491852970.6961929798, -0.1870,  0.0046,  0.0028, -0.0042,  0.0119,  0.0351
1491852970.6965699196,1491852970.6989989281, -0.1870,  0.0046,  0.0028, -0.0042,  0.0119,  0.0351
1491852970.6993770599,1491852970.7017979622, -0.1870,  0.0046,  0.0092, -0.0042,  0.0119,  0.0311
1491852970.7021760941,1491852970.7045769691, -0.1886,  0.0000,  0.0092, -0.0032,  0.0156,  0.0311
1491852970.7049479485,1491852970.7072470188, -0.1886,  0.0000,  0.0092, -0.0032,  0.0156,  0.0311
1491852970.7076160908,1491852970.7099180222, -0.1886,  0.0000,  0.0092, -0.0032,  0.0156,  0.0311
1491852970.7102880478,1491852970.7125940323, -0.1886,  0.0000,  0.0092, -0.0056,  0.0174,  0.0326
1491852970.7129640579,1491852970.7153229713, -0.1886,  0.0000,  0.0092, -0.0056,  0.0174,  0.0326
1491852970.7156999111,1491852970.7182281017, -0.1886,  0.0000,  0.0092, -0.0056,  0.0174,  0.0326
1491852970.7186191082,1491852970.7209300995, -0.1886,  0.0000,  0.0092, -0.0056,  0.0174,  0.0326
1491852970.7213029861,1491852970.7235989571, -0.1920,  0.0069,  0.0054, -0.0058,  0.0176,  0.0321
1491852970.7239699364,1491852970.7263939381, -0.1920,  0.0069,  0.0054, -0.0058,  0.0176,  0.0321
1491852970.7267661095,1491852970.7290658951, -0.1920,  0.0069,  0.0054, -0.0058,  0.0176,  0.0321
1491852970.7294371128,1491852970.7317330837, -0.1920,  0.0069,  0.0054, -0.0058,  0.0176,  0.0321
1491852970.7321019173,1491852970.7345130444, -0.1920,  0.0069,  0.0054, -0.0005,  0.0222,  0.0297
1491852970.7348830700,1491852970.7371799946, -0.1920,  0.0069,  0.0054, -0.0005,  0.0222,  0.0297
1491852970.7375500202,1491852970.7398419380, -0.1920,  0.0069,  0.0054, -0.0005,  0.0222,  0.0297
1491852970.7402100563,1491852970.7425069809, -0.1876,  0.0095, -0.0103, -0.0005,  0.0222,  0.0297
1491852970.7428770065,1491852970.7452208996, -0.1876,  0.0095, -0.0103,  0.0017,  0.0240,  0.0277
1491852970.7455930710,1491852970.7478919029, -0.1876,  0.0095, -0.0103,  0.0017,  0.0240,  0.0277
1491852970.7482628822,1491852970.7505578995, -0.1876,  0.0095, -0.0103,  0.0017,  0.0240,  0.0277
1491852970.7509279251,1491852970.7532188892, -0.1876,  0.0095, -0.0103,  0.0017,  0.0162,  0.0238
1491852970.7535879612,1491852970.7558889389, -0.1876,  0.0095, -0.0103,  0.0044,  0.0224,  0.0238
1491852970.7562570572,1491852970.7585530281, -0.1876,  0.0095, -0.0103,  0.0044,  0.0224,  0.0238
1491852970.7589240074,1491852970.7612159252, -0.1876,  0.0095, -0.0126,  0.0044,  0.0224,  0.0238
1491852970.7615869045,1491852970.7638831139, -0.1870,  0.0130, -0.0126,  0.0122,  0.0187,  0.0197
1491852970.7642579079,1491852970.7666890621, -0.1870,  0.0130, -0.0126,  0.0083,  0.0187,  0.0197
1491852970.7671771049,1491852970.7696070671, -0.1870,  0.0130, -0.0126,  0.0083,  0.0187,  0.0197
1491852970.7699840069,1491852970.7724089622, -0.1870,  0.0130, -0.0126,  0.0083,  0.0187,  0.0197
1491852970.7727849483,1491852970.7752830982, -0.1870,  0.0130, -0.0126,  0.0116,  0.0155,  0.0146
1491852970.7756578922,1491852970.7780900002, -0.1870,  0.0130, -0.0126,  0.0116,  0.0155,  0.0146
1491852970.7784650326,1491852970.7808949947, -0.1870,  0.0130, -0.0109,  0.0116,  0.0155,  0.0146
1491852970.7812728882,1491852970.7836949825, -0.1876,  0.0094, -0.0109,  0.0116,  0.0155,  0.0146
1491852970.7840809822,1491852970.7865140438, -0.1876,  0.0094, -0.0109,  0.0158,  0.0123,  0.0132
1491852970.7868900299,1491852970.7893218994, -0.1876,  0.0094, -0.0109,  0.0158,  0.0123,  0.0132
1491852970.7897000313,1491852970.7921268940, -0.1876,  0.0094, -0.0109,  0.0158,  0.0123,  0.0132
1491852970.7925031185,1491852970.7949030399, -0.1876,  0.0094, -0.0109,  0.0167,  0.0086,  0.0102
1491852970.7952730656,1491852970.7975769043, -0.1876,  0.0094, -0.0109,  0.0167,  0.0086,  0.0102
1491852970.7979459763,1491852970.8002519608, -0.1876,  0.0094, -0.0109,  0.0167,  0.0086,  0.0102
1491852970.8006200790,1491852970.8029220104, -0.1900,  0.0100,  0.0000,  0.0167,  0.0086,  0.0102
1491852970.8032948971,1491852970.8057119846, -0.1900,  0.0100,  0.0000,  0.0189,  0.0066,  0.0081
1491852970.8060901165,1491852970.8084979057, -0.1900,  0.0100,  0.0000,  0.0189,  0.0066,  0.0081
1491852970.8088738918,1491852970.8112850189, -0.1900,  0.0100,  0.0000,  0.0189,  0.0066,  0.0081
1491852970.8116600513,1491852970.8140819073, -0.1900,  0.0100,  0.0000,  0.0189,  0.0066,  0.0081
1491852970.8144600391,1491852970.8168718815, -0.1900,  0.0100,  0.0000,  0.0204,  0.0065,  0.0074
1491852970.8172481060,1491852970.8196530342, -0.1900,  0.0100,  0.0000,  0.0204,  0.0065,  0.0074
1491852970.8200290203,1491852970.8224420547, -0.1848,  0.0111, -0.0046,  0.0204,  0.0065,  0.0074
1491852970.8228180408,1491852970.8252730370, -0.1848,  0.0111, -0.0046,  0.0204,  0.0065,  0.0068
1491852970.8256530762,1491852970.8280649185, -0.1848,  0.0111, -0.0046,  0.0187,  0.0055,  0.0068
1491852970.8284420967,1491852970.8308520317, -0.1848,  0.0111, -0.0046,  0.0187,  0.0055,  0.0068
1491852970.8312289715,1491852970.8336329460, -0.1848,  0.0111, -0.0046,  0.0187,  0.0055,  0.0068
1491852970.8340110779,1491852970.8364419937, -0.1848,  0.0111, -0.0046,  0.0185,  0.0028,  0.0038
1491852970.8368160725,1491852970.8392078876, -0.1848,  0.0111, -0.0046,  0.0185,  0.0028,  0.0038
1491852970.8395819664,1491852970.8419730663, -0.1863,  0.0124, -0.0023,  0.0185,  0.0028,  0.0038
1491852970.8423469067,1491852970.8449409008, -0.1863,  0.0124, -0.0023,  0.0185,  0.0028,  0.0038
1491852970.8453149796,1491852970.8476119041, -0.1863,  0.0124, -0.0023,  0.0194,  0.0019,  0.0013
1491852970.8479819298,1491852970.8502800465, -0.1863,  0.0124, -0.0023,  0.0194,  0.0019,  0.0013
1491852970.8506500721,1491852970.8529479504, -0.1863,  0.0124, -0.0023,  0.0194,  0.0019,  0.0013
1491852970.8533179760,1491852970.8558020592, -0.1863,  0.0124, -0.0023,  0.0194,  0.0019, -0.0006
1491852970.8561730385,1491852970.8584690094, -0.1863,  0.0124, -0.0023,  0.0188,  0.0023, -0.0006
1491852970.8588399887,1491852970.8611340523, -0.1887,  0.0100, -0.0091,  0.0188,  0.0023, -0.0006
1491852970.8615050316,1491852970.8637990952, -0.1887,  0.0100, -0.0091,  0.0188,  0.0023, -0.0006
1491852970.8641619682,1491852970.8664660454, -0.1887,  0.0100, -0.0091,  0.0188,  0.0023, -0.0034
1491852970.8668360710,1491852970.8691270351, -0.1887,  0.0100, -0.0091,  0.0155,  0.0027, -0.0034
1491852970.8694989681,1491852970.8717930317, -0.1887,  0.0100, -0.0091,  0.0155,  0.0027, -0.0034
1491852970.8721621037,1491852970.8744890690, -0.1887,  0.0100, -0.0091,  0.0155,  0.0027, -0.0034
1491852970.8748610020,1491852970.8771579266, -0.1887,  0.0100, -0.0091,  0.0176,  0.0016, -0.0040
1491852970.8775289059,1491852970.8798298836, -0.1887,  0.0100, -0.0060,  0.0176,  0.0016, -0.0040
1491852970.8802020550,1491852970.8824920654, -0.1865,  0.0092, -0.0060,  0.0176,  0.0016, -0.0040
1491852970.8829729557,1491852970.8853480816, -0.1865,  0.0092, -0.0060,  0.0176,  0.0016, -0.0040
1491852970.8857278824,1491852970.8881559372, -0.1865,  0.0092, -0.0060,  0.0185, -0.0006, -0.0031
1491852970.8885350227,1491852970.8909590244, -0.1865,  0.0092, -0.0060,  0.0185, -0.0006, -0.0031
1491852970.8913390636,1491852970.8937640190, -0.1865,  0.0092, -0.0060,  0.0185, -0.0006, -0.0031
1491852970.8941519260,1491852970.8964560032, -0.1865,  0.0092, -0.0060,  0.0185, -0.0006, -0.0031
1491852970.8968260288,1491852970.8991320133, -0.1865,  0.0092, -0.0060,  0.0168, -0.0028, -0.0024
1491852970.8995039463,1491852970.9018089771, -0.1885,  0.0096, -0.0037,  0.0168, -0.0028, -0.0024
1491852970.9021809101,1491852970.9045169353, -0.1885,  0.0096, -0.0037,  0.0168, -0.0028, -0.0024
1491852970.9048960209,1491852970.9073219299, -0.1885,  0.0096, -0.0037,  0.0168, -0.0028, -0.0027
1491852970.9077000618,1491852970.9101259708, -0.1885,  0.0096, -0.0037,  0.0146, -0.0019, -0.0027
1491852970.9105029106,1491852970.9129290581, -0.1885,  0.0096, -0.0037,  0.0146, -0.0019, -0.0027
1491852970.9133090973,1491852970.9157469273, -0.1885,  0.0096, -0.0037,  0.0146, -0.0019, -0.0027
1491852970.9161229134,1491852970.9185500145, -0.1885,  0.0096, -0.0037,  0.0138, -0.0003, -0.0031
1491852970.9189269543,1491852970.9213590622, -0.1886,  0.0106,  0.0033,  0.0138, -0.0003, -0.0031
1491852970.9217379093,1491852970.9241790771, -0.1886,  0.0106,  0.0033,  0.0138, -0.0003, -0.0031
1491852970.9245560169,1491852970.9269809723, -0.1886,  0.0106,  0.0033,  0.0138, -0.0003, -0.0031
1491852970.9273579121,1491852970.9297831059, -0.1886,  0.0106,  0.0033,  0.0147,  0.0009, -0.0040
1491852970.9301600456,1491852970.9325830936, -0.1886,  0.0106,  0.0033,  0.0147,  0.0009, -0.0040
1491852970.9329600334,1491852970.9353890419, -0.1886,  0.0106,  0.0033,  0.0147,  0.0009, -0.0040
1491852970.9357659817,1491852970.9381940365, -0.1886,  0.0106,  0.0033,  0.0147,  0.0009, -0.0038
1491852970.9385690689,1491852970.9409968853, -0.1884,  0.0134,  0.0015,  0.0164,  0.0029, -0.0038
1491852970.9413750172,1491852970.9437999725, -0.1884,  0.0134,  0.0015,  0.0164,  0.0029, -0.0038
1491852970.9441859722,1491852970.9464910030, -0.1884,  0.0134,  0.0015,  0.0164,  0.0029, -0.0038
1491852970.9468600750,1491852970.9491651058, -0.1884,  0.0134,  0.0015,  0.0164,  0.0038, -0.0054
1491852970.9495348930,1491852970.9518430233, -0.1884,  0.0134,  0.0015,  0.0161,  0.0038, -0.0054
1491852970.9522130489,1491852970.9545528889, -0.1884,  0.0134,  0.0015,  0.0161,  0.0038, -0.0054
1491852970.9549329281,1491852970.9573459625, -0.1884,  0.0134,  0.0015,  0.0161,  0.0038, -0.0054
1491852970.9577229023,1491852970.9601318836, -0.1886,  0.0133,  0.0023,  0.0173,  0.0054, -0.0063
1491852970.9605069160,1491852970.9629199505, -0.1886,  0.0133,  0.0023,  0.0173,  0.0054, -0.0063
1491852970.9632959366,1491852970.9656970501, -0.1886,  0.0133,  0.0023,  0.0173,  0.0054, -0.0063
1491852970.9660730362,1491852970.9684619904, -0.1886,  0.0133,  0.0023,  0.0173,  0.0054, -0.0063
1491852970.9688370228,1491852970.9714009762, -0.1886,  0.0133,  0.0023,  0.0190,  0.0067, -0.0066
1491852970.9717741013,1491852970.9743170738, -0.1886,  0.0133,  0.0023,  0.0190,  0.0067, -0.0066
1491852970.9746909142,1491852970.9769899845, -0.1886,  0.0133,  0.0023,  0.0190,  0.0067, -0.0066
1491852970.9773619175,1491852970.9796559811, -0.1886,  0.0122, -0.0021,  0.0190,  0.0067, -0.0081
1491852970.9800250530,1491852970.9823210239, -0.1880,  0.0122, -0.0021,  0.0186,  0.0056, -0.0081
1491852970.9826910496,1491852970.9851059914, -0.1880,  0.0122, -0.0021,  0.0186,  0.0056, -0.0081
1491852970.9854769707,1491852970.9877760410, -0.1880,  0.0122, -0.0021,  0.0186,  0.0056, -0.0081
1491852970.9881489277,1491852970.9904470444, -0.1880,  0.0122, -0.0021,  0.0180,  0.0039, -0.0094
1491852970.9908199310,1491852970.9931120872, -0.1880,  0.0122, -0.0021,  0.0180,  0.0039, -0.0094
1491852970.9934830666,1491852970.9958250523, -0.1880,  0.0122, -0.0021,  0.0180,  0.0039, -0.0094
1491852970.9961960316,1491852970.9984939098, -0.1880,  0.0122, -0.0021,  0.0180,  0.0039, -0.0094
1491852970.9989750385,1491852971.0012679100, -0.1881,  0.0118, -0.0014,  0.0191,  0.0031, -0.0108
1491852971.0016379356,1491852971.0039310455, -0.1881,  0.0118, -0.0014,  0.0191,  0.0031, -0.0108
1491852971.0043179989,1491852971.0066189766, -0.1881,  0.0118, -0.0014,  0.0191,  0.0031, -0.0108
1491852971.0069909096,1491852971.0092871189, -0.1881,  0.0118, -0.0014,  0.0191,  0.0031, -0.0108
1491852971.0096559525,1491852971.0119509697, -0.1881,  0.0118, -0.0014,  0.0192,  0.0028, -0.0115
1491852971.0123200417,1491852971.0147008896, -0.1881,  0.0118, -0.0014,  0.0192,  0.0028, -0.0115
1491852971.0150790215,1491852971.0175049305, -0.1881,  0.0118, -0.0014,  0.0192,  0.0028, -0.0115
1491852971.0178830624,1491852971.0203049183, -0.1873,  0.0118,  0.0003,  0.0192,  0.0028, -0.0115
1491852971.0206799507,1491852971.0231039524, -0.1873,  0.0118,  0.0003,  0.0169,  0.0032, -0.0119
1491852971.0234808922,1491852971.0259180069, -0.1873,  0.0118,  0.0003,  0.0169,  0.0032, -0.0119
1491852971.0262939930,1491852971.0287261009, -0.1873,  0.0118,  0.0003,  0.0169,  0.0032, -0.0119
1491852971.0291020870,1491852971.0315260887, -0.1873,  0.0118,  0.0003,  0.0169,  0.0035, -0.0111
1491852971.0319020748,1491852971.0343260765, -0.1873,  0.0118,  0.0003,  0.0166,  0.0035, -0.0111
1491852971.0346961021,1491852971.0370008945, -0.1873,  0.0118,  0.0003,  0.0166,  0.0035, -0.0111
1491852971.0373680592,1491852971.0396730900, -0.1880,  0.0112, -0.0012,  0.0166,  0.0035, -0.0111
1491852971.0400440693,1491852971.0423440933, -0.1880,  0.0112, -0.0012,  0.0164,  0.0045, -0.0102
1491852971.0427129269,1491852971.0451109409, -0.1880,  0.0112, -0.0012,  0.0164,  0.0045, -0.0102
1491852971.0454890728,1491852971.0479130745, -0.1880,  0.0112, -0.0012,  0.0164,  0.0045, -0.0102
1491852971.0482900143,1491852971.0507171154, -0.1880,  0.0112, -0.0012,  0.0164,  0.0045, -0.0102
1491852971.0510959625,1491852971.0535190105, -0.1880,  0.0112, -0.0012,  0.0161,  0.0053, -0.0103
1491852971.0538959503,1491852971.0563299656, -0.1880,  0.0112, -0.0012,  0.0161,  0.0053, -0.0103
1491852971.0567090511,1491852971.0591340065, -0.1880,  0.0122,  0.0019,  0.0161,  0.0053, -0.0103
1491852971.0595109463,1491852971.0619380474, -0.1888,  0.0122,  0.0019,  0.0161,  0.0053, -0.0101
1491852971.0623168945,1491852971.0647530556, -0.1888,  0.0122,  0.0019,  0.0164,  0.0064, -0.0101
1491852971.0651319027,1491852971.0675559044, -0.1888,  0.0122,  0.0019,  0.0164,  0.0064, -0.0101
1491852971.0679330826,1491852971.0703608990, -0.1888,  0.0122,  0.0019,  0.0164,  0.0064, -0.0101
1491852971.0707380772,1491852971.0731630325, -0.1888,  0.0122,  0.0019,  0.0176,  0.0084, -0.0101
1491852971.0735409260,1491852971.0759789944, -0.1888,  0.0122,  0.0019,  0.0176,  0.0084, -0.0101
1491852971.0764560699,1491852971.0788710117, -0.1888,  0.0128,  0.0026,  0.0176,  0.0084, -0.0101
1491852971.0792469978,1491852971.0816540718, -0.1890,  0.0128,  0.0026,  0.0176,  0.0084, -0.0101
1491852971.0820310116,1491852971.0844390392, -0.1890,  0.0128,  0.0026,  0.0177,  0.0104, -0.0105
1491852971.0848090649,1491852971.0872199535, -0.1890,  0.0128,  0.0026,  0.0177,  0.0104, -0.0105
1491852971.0875890255,1491852971.0898919106, -0.1890,  0.0128,  0.0026,  0.0177,  0.0104, -0.0105
1491852971.0902600288,1491852971.0925629139, -0.1890,  0.0128,  0.0026,  0.0177,  0.0104, -0.0112
1491852971.0929319859,1491852971.0953369141, -0.1890,  0.0128,  0.0026,  0.0165,  0.0116, -0.0112
1491852971.0957119465,1491852971.0981540680, -0.1890,  0.0128,  0.0021,  0.0165,  0.0116, -0.0112
1491852971.0985279083,1491852971.1009550095, -0.1879,  0.0136,  0.0021,  0.0165,  0.0116, -0.0112
1491852971.1013300419,1491852971.1037518978, -0.1879,  0.0136,  0.0021,  0.0173,  0.0129, -0.0125
1491852971.1041390896,1491852971.1065759659, -0.1879,  0.0136,  0.0021,  0.0173,  0.0129, -0.0125
1491852971.1069519520,1491852971.1093859673, -0.1879,  0.0136,  0.0021,  0.0173,  0.0129, -0.0125
1491852971.1097619534,1491852971.1121950150, -0.1879,  0.0136,  0.0021,  0.0173,  0.0129, -0.0125
1491852971.1125729084,1491852971.1150140762, -0.1879,  0.0136,  0.0021,  0.0186,  0.0145, -0.0124
1491852971.1155040264,1491852971.1179339886, -0.1879,  0.0136,  0.0022,  0.0186,  0.0145, -0.0124
1491852971.1183090210,1491852971.1207389832, -0.1876,  0.0125,  0.0022,  0.0186,  0.0145, -0.0124
1491852971.1211159229,1491852971.1235420704, -0.1876,  0.0125,  0.0022,  0.0186,  0.0145, -0.0125
1491852971.1239190102,1491852971.1263489723, -0.1876,  0.0125,  0.0022,  0.0195,  0.0163, -0.0125
1491852971.1267249584,1491852971.1291580200, -0.1876,  0.0125,  0.0022,  0.0195,  0.0163, -0.0125
1491852971.1295340061,1491852971.1319589615, -0.1876,  0.0125,  0.0022,  0.0195,  0.0163, -0.0125
1491852971.1323359013,1491852971.1347470284, -0.1876,  0.0125,  0.0022,  0.0203,  0.0170, -0.0124
1491852971.1351170540,1491852971.1374149323, -0.1876,  0.0125, -0.0056,  0.0203,  0.0170, -0.0124
1491852971.1377840042,1491852971.1400880814, -0.1878,  0.0120, -0.0032,  0.0203,  0.0170, -0.0124
1491852971.1404581070,1491852971.1427600384, -0.1878,  0.0120, -0.0032,  0.0203,  0.0170, -0.0124
1491852971.1431300640,1491852971.1455249786, -0.1878,  0.0120, -0.0032,  0.0191,  0.0169, -0.0112
1491852971.1459050179,1491852971.1483349800, -0.1878,  0.0120, -0.0032,  0.0191,  0.0169, -0.0112
1491852971.1487109661,1491852971.1511371136, -0.1878,  0.0120, -0.0032,  0.0191,  0.0169, -0.0112
1491852971.1515140533,1491852971.1539421082, -0.1878,  0.0120, -0.0032,  0.0191,  0.0169, -0.0112
1491852971.1543629169,1491852971.1567950249, -0.1878,  0.0120, -0.0032,  0.0196,  0.0175, -0.0097
1491852971.1571729183,1491852971.1596009731, -0.1890,  0.0120, -0.0040,  0.0196,  0.0175, -0.0097
1491852971.1599779129,1491852971.1624031067, -0.1890,  0.0120, -0.0040,  0.0196,  0.0175, -0.0097
1491852971.1627810001,1491852971.1652100086, -0.1890,  0.0120, -0.0040,  0.0196,  0.0184, -0.0083
1491852971.1655900478,1491852971.1680209637, -0.1890,  0.0120, -0.0040,  0.0215,  0.0184, -0.0083
1491852971.1683979034,1491852971.1708240509, -0.1890,  0.0120, -0.0040,  0.0215,  0.0184, -0.0083
1491852971.1712009907,1491852971.1736249924, -0.1890,  0.0120, -0.0040,  0.0215,  0.0184, -0.0083
1491852971.1740028858,1491852971.1764929295, -0.1890,  0.0120, -0.0040,  0.0223,  0.0198, -0.0071
1491852971.1768710613,1491852971.1793010235, -0.1895,  0.0099, -0.0044,  0.0223,  0.0198, -0.0071
1491852971.1796789169,1491852971.1821029186, -0.1895,  0.0099, -0.0044,  0.0223,  0.0198, -0.0071
1491852971.1824810505,1491852971.1848840714, -0.1895,  0.0099, -0.0044,  0.0223,  0.0198, -0.0071
1491852971.1852550507,1491852971.1875569820, -0.1895,  0.0099, -0.0044,  0.0221,  0.0211, -0.0050
1491852971.1879279613,1491852971.1902329922, -0.1895,  0.0099, -0.0044,  0.0221,  0.0211, -0.0050
1491852971.1906030178,1491852971.1929070950, -0.1895,  0.0099, -0.0044,  0.0221,  0.0211, -0.0050
1491852971.1932780743,1491852971.1957120895, -0.1895,  0.0099, -0.0044,  0.0221,  0.0290, -0.0016
1491852971.1960909367,1491852971.1985170841, -0.1896,  0.0082, -0.0034,  0.0229,  0.0236, -0.0016
1491852971.1988949776,1491852971.2013208866, -0.1896,  0.0082, -0.0034,  0.0229,  0.0236, -0.0016
1491852971.2016980648,1491852971.2041270733, -0.1896,  0.0082, -0.0034,  0.0229,  0.0236, -0.0016
1491852971.2045040131,1491852971.2069270611, -0.1896,  0.0082, -0.0034,  0.0216,  0.0250,  0.0016
1491852971.2073030472,1491852971.2097299099, -0.1896,  0.0082, -0.0034,  0.0216,  0.0250,  0.0016
1491852971.2101080418,1491852971.2125339508, -0.1896,  0.0082, -0.0034,  0.0216,  0.0250,  0.0016
1491852971.2129120827,1491852971.2153470516, -0.1896,  0.0082, -0.0034,  0.0216,  0.0250,  0.0016
1491852971.2157220840,1491852971.2181479931, -0.1901,  0.0061, -0.0048,  0.0201,  0.0268,  0.0054
1491852971.2185270786,1491852971.2209560871, -0.1901,  0.0061, -0.0048,  0.0201,  0.0268,  0.0054
1491852971.2213339806,1491852971.2237610817, -0.1901,  0.0061, -0.0048,  0.0201,  0.0268,  0.0054
1491852971.2241470814,1491852971.2265810966, -0.1901,  0.0061, -0.0048,  0.0201,  0.0268,  0.0106
1491852971.2269589901,1491852971.2293848991, -0.1901,  0.0061, -0.0048,  0.0178,  0.0286,  0.0106
1491852971.2298700809,1491852971.2322990894, -0.1901,  0.0061, -0.0048,  0.0178,  0.0286,  0.0106
1491852971.2326769829,1491852971.2350680828, -0.1901,  0.0061, -0.0048,  0.0178,  0.0286,  0.0106
1491852971.2354381084,1491852971.2377419472, -0.1911,  0.0073, -0.0052,  0.0177,  0.0303,  0.0150
1491852971.2381119728,1491852971.2404139042, -0.1911,  0.0073, -0.0052,  0.0177,  0.0303,  0.0150
1491852971.2407848835,1491852971.2430870533, -0.1911,  0.0073, -0.0052,  0.0177,  0.0303,  0.0150
1491852971.2434570789,1491852971.2458009720, -0.1911,  0.0073, -0.0052,  0.0177,  0.0303,  0.0150
1491852971.2461690903,1491852971.2484641075, -0.1911,  0.0073, -0.0052,  0.0182,  0.0327,  0.0188
1491852971.2488319874,1491852971.2511360645, -0.1911,  0.0073, -0.0052,  0.0182,  0.0327,  0.0188
1491852971.2515048981,1491852971.2538049221, -0.1911,  0.0073, -0.0052,  0.0182,  0.0327,  0.0188
1491852971.2541930676,1491852971.2566189766, -0.1911,  0.0073, -0.0060,  0.0182,  0.0327,  0.0188
1491852971.2569971085,1491852971.2594230175, -0.1927,  0.0073, -0.0060,  0.0170,  0.0344,  0.0216
1491852971.2597980499,1491852971.2622270584, -0.1927,  0.0073, -0.0060,  0.0170,  0.0344,  0.0216
1491852971.2626049519,1491852971.2650771141, -0.1927,  0.0073, -0.0060,  0.0170,  0.0344,  0.0216
1491852971.2654559612,1491852971.2678799629, -0.1927,  0.0073, -0.0060,  0.0170,  0.0373,  0.0259
1491852971.2682549953,1491852971.2706809044, -0.1927,  0.0073, -0.0060,  0.0153,  0.0373,  0.0259
1491852971.2710580826,1491852971.2734839916, -0.1927,  0.0073, -0.0060,  0.0153,  0.0373,  0.0259
1491852971.2738609314,1491852971.2762908936, -0.1927,  0.0073, -0.0061,  0.0153,  0.0373,  0.0259
1491852971.2766690254,1491852971.2790970802, -0.1931,  0.0092, -0.0061,  0.0149,  0.0412,  0.0297
1491852971.2794740200,1491852971.2818999290, -0.1931,  0.0092, -0.0061,  0.0149,  0.0412,  0.0297
1491852971.2822771072,1491852971.2846829891, -0.1931,  0.0092, -0.0061,  0.0149,  0.0412,  0.0297
1491852971.2850539684,1491852971.2873589993, -0.1931,  0.0092, -0.0061,  0.0149,  0.0412,  0.0297
1491852971.2877280712,1491852971.2900319099, -0.1931,  0.0092, -0.0061,  0.0129,  0.0454,  0.0329
1491852971.2904019356,1491852971.2927041054, -0.1931,  0.0092, -0.0061,  0.0129,  0.0454,  0.0329
1491852971.2930750847,1491852971.2954940796, -0.1931,  0.0092, -0.0061,  0.0129,  0.0454,  0.0329
1491852971.2958710194,1491852971.2982959747, -0.1924,  0.0136, -0.0041,  0.0129,  0.0454,  0.0338
1491852971.2986741066,1491852971.3011050224, -0.1924,  0.0136, -0.0041,  0.0116,  0.0481,  0.0338
1491852971.3014800549,1491852971.3039081097, -0.1924,  0.0136, -0.0041,  0.0116,  0.0481,  0.0338
1491852971.3042929173,1491852971.3067240715, -0.1924,  0.0136, -0.0041,  0.0116,  0.0481,  0.0338
1491852971.3071019650,1491852971.3095319271, -0.1924,  0.0136, -0.0041,  0.0093,  0.0512,  0.0353
1491852971.3099079132,1491852971.3123350143, -0.1924,  0.0136, -0.0041,  0.0093,  0.0512,  0.0353
1491852971.3127110004,1491852971.3151519299, -0.1924,  0.0136, -0.0041,  0.0093,  0.0512,  0.0353
1491852971.3155291080,1491852971.3179609776, -0.1931,  0.0184, -0.0118,  0.0093,  0.0512,  0.0353
1491852971.3183379173,1491852971.3207669258, -0.1931,  0.0184, -0.0118,  0.0070,  0.0515,  0.0363
1491852971.3211419582,1491852971.3235759735, -0.1931,  0.0184, -0.0118,  0.0070,  0.0515,  0.0363
1491852971.3239541054,1491852971.3263909817, -0.1931,  0.0184, -0.0118,  0.0070,  0.0515,  0.0363
1491852971.3267691135,1491852971.3291969299, -0.1931,  0.0184, -0.0118,  0.0070,  0.0515,  0.0373
1491852971.3295729160,1491852971.3320031166, -0.1931,  0.0184, -0.0118,  0.0052,  0.0499,  0.0373
1491852971.3323791027,1491852971.3347740173, -0.1931,  0.0184, -0.0118,  0.0052,  0.0499,  0.0373
1491852971.3351430893,1491852971.3374440670, -0.1918,  0.0181, -0.0130,  0.0052,  0.0499,  0.0373
1491852971.3378140926,1491852971.3401169777, -0.1918,  0.0181, -0.0130, -0.0026,  0.0490,  0.0399
1491852971.3404860497,1491852971.3427889347, -0.1918,  0.0181, -0.0130, -0.0002,  0.0490,  0.0399
1491852971.3431570530,1491852971.3455400467, -0.1918,  0.0181, -0.0130, -0.0002,  0.0490,  0.0399
1491852971.3460268974,1491852971.3484520912, -0.1918,  0.0181, -0.0130, -0.0002,  0.0490,  0.0399
1491852971.3488268852,1491852971.3512508869, -0.1918,  0.0181, -0.0130, -0.0082,  0.0445,  0.0408
1491852971.3516290188,1491852971.3540639877, -0.1918,  0.0181, -0.0130, -0.0082,  0.0445,  0.0408
1491852971.3544409275,1491852971.3568689823, -0.2072,  0.0146, -0.0111, -0.0082,  0.0445,  0.0408
1491852971.3572449684,1491852971.3596749306, -0.2072,  0.0146, -0.0111, -0.0082,  0.0445,  0.0408
1491852971.3600521088,1491852971.3624799252, -0.2072,  0.0146, -0.0111, -0.0142,  0.0414,  0.0428
1491852971.3628559113,1491852971.3652989864, -0.2072,  0.0146, -0.0111, -0.0142,  0.0414,  0.0428
1491852971.3656759262,1491852971.3681070805, -0.2072,  0.0146, -0.0111, -0.0142,  0.0414,  0.0428
1491852971.3684821129,1491852971.3709061146, -0.2072,  0.0146, -0.0111, -0.0220,  0.0345,  0.0543
1491852971.3712821007,1491852971.3737099171, -0.2072,  0.0146, -0.0111, -0.0175,  0.0345,  0.0543
1491852971.3740949631,1491852971.3764019012, -0.2366,  0.0089,  0.0024, -0.0175,  0.0345,  0.0543
1491852971.3767709732,1491852971.3790709972, -0.2366,  0.0089,  0.0024, -0.0175,  0.0345,  0.0543
1491852971.3794379234,1491852971.3817338943, -0.2366,  0.0089,  0.0024, -0.0061,  0.0316,  0.0698
1491852971.3821051121,1491852971.3844869137, -0.2366,  0.0089,  0.0024, -0.0061,  0.0316,  0.0698
1491852971.3848590851,1491852971.3871600628, -0.2366,  0.0089,  0.0024, -0.0061,  0.0316,  0.0698
1491852971.3875300884,1491852971.3898329735, -0.2366,  0.0089,  0.0024, -0.0061,  0.0316,  0.0698
1491852971.3902029991,1491852971.3925049305, -0.2366,  0.0089,  0.0024,  0.0067,  0.0399,  0.0916
1491852971.3928730488,1491852971.3952178955, -0.2366,  0.0089, -0.0281,  0.0067,  0.0399,  0.0916
1491852971.3955891132,1491852971.3978869915, -0.2258,  0.0181, -0.0281,  0.0067,  0.0399,  0.0916
1491852971.3982579708,1491852971.4005520344, -0.2258,  0.0181, -0.0281,  0.0067,  0.0399,  0.0916
1491852971.4009211063,1491852971.4032220840, -0.2258,  0.0181, -0.0281,  0.0057,  0.0661,  0.1117
1491852971.4035909176,1491852971.4060080051, -0.2258,  0.0181, -0.0281,  0.0057,  0.0661,  0.1117
1491852971.4063849449,1491852971.4088110924, -0.2258,  0.0181, -0.0281,  0.0057,  0.0661,  0.1117
1491852971.4091870785,1491852971.4116139412, -0.2258,  0.0181, -0.0281,  0.0057,  0.0661,  0.1238
1491852971.4119930267,1491852971.4144580364, -0.2258,  0.0181, -0.0281,  0.0041,  0.0508,  0.1238
1491852971.4148349762,1491852971.4172599316, -0.2424, -0.0031, -0.0255,  0.0041,  0.0508,  0.1238
1491852971.4176371098,1491852971.4200620651, -0.2424, -0.0031, -0.0255,  0.0041,  0.0508,  0.1238
1491852971.4204399586,1491852971.4228649139, -0.2424, -0.0031, -0.0255,  0.0054,  0.0533,  0.1387
1491852971.4232420921,1491852971.4256789684, -0.2424, -0.0031, -0.0255,  0.0054,  0.0533,  0.1387
1491852971.4260540009,1491852971.4284749031, -0.2424, -0.0031, -0.0255,  0.0054,  0.0533,  0.1387
1491852971.4288530350,1491852971.4312820435, -0.2424, -0.0031, -0.0255,  0.0054,  0.0533,  0.1387
1491852971.4316620827,1491852971.4340949059, -0.2424, -0.0031, -0.0255,  0.0064,  0.0575,  0.1541
1491852971.4344720840,1491852971.4368960857, -0.2399, -0.0117, -0.0208,  0.0064,  0.0575,  0.1541
1491852971.4372711182,1491852971.4396979809, -0.2399, -0.0117, -0.0208,  0.0064,  0.0575,  0.1541
1491852971.4400761127,1491852971.4425070286, -0.2399, -0.0117, -0.0208,  0.0064,  0.0575,  0.1725
1491852971.4428830147,1491852971.4452600479, -0.2399, -0.0117, -0.0208,  0.0076,  0.0551,  0.1725
1491852971.4456288815,1491852971.4479339123, -0.2399, -0.0117, -0.0208,  0.0076,  0.0551,  0.1725
1491852971.4483039379,1491852971.4506070614, -0.2399, -0.0117, -0.0208,  0.0076,  0.0551,  0.1725
1491852971.4509770870,1491852971.4532809258, -0.2399, -0.0117, -0.0208,  0.0154,  0.0553,  0.1885
1491852971.4536490440,1491852971.4560999870, -0.2336, -0.0129, -0.0133,  0.0147,  0.0553,  0.1885
1491852971.4564750195,1491852971.4589018822, -0.2336, -0.0129, -0.0133,  0.0147,  0.0553,  0.1885
1491852971.4592790604,1491852971.4616990089, -0.2336, -0.0129, -0.0133,  0.0147,  0.0553,  0.1885
1491852971.4621849060,1491852971.4646570683, -0.2336, -0.0129, -0.0133,  0.0228,  0.0553,  0.2051
1491852971.4650321007,1491852971.4674599171, -0.2336, -0.0129, -0.0133,  0.0228,  0.0553,  0.2051
1491852971.4678370953,1491852971.4702589512, -0.2336, -0.0129, -0.0133,  0.0228,  0.0553,  0.2051
1491852971.4706349373,1491852971.4730629921, -0.2336, -0.0129, -0.0133,  0.0228,  0.0553,  0.2207
1491852971.4734380245,1491852971.4758820534, -0.2231, -0.0084, -0.0090,  0.0223,  0.0446,  0.2249
1491852971.4762599468,1491852971.4787259102, -0.2231, -0.0084, -0.0090,  0.0223,  0.0446,  0.2249
1491852971.4791040421,1491852971.4815320969, -0.2231, -0.0084, -0.0090,  0.0223,  0.0446,  0.2249
1491852971.4819099903,1491852971.4843499660, -0.2231, -0.0084, -0.0090,  0.0293,  0.0335,  0.2457
1491852971.4847280979,1491852971.4871540070, -0.2231, -0.0084, -0.0090,  0.0293,  0.0335,  0.2457
1491852971.4875319004,1491852971.4899630547, -0.2231, -0.0084, -0.0090,  0.0293,  0.0335,  0.2457
1491852971.4903390408,1491852971.4927670956, -0.2231, -0.0084, -0.0090,  0.0293,  0.0335,  0.2457
1491852971.4931449890,1491852971.4955139160, -0.2299, -0.0123,  0.0070,  0.0382,  0.0262,  0.2690
1491852971.4958839417,1491852971.4981861115, -0.2299, -0.0123,  0.0070,  0.0382,  0.0262,  0.2690
1491852971.4985558987,1491852971.5008609295, -0.2299, -0.0123,  0.0070,  0.0382,  0.0262,  0.2690
1491852971.5012309551,1491852971.5035300255, -0.2299, -0.0123,  0.0070,  0.0382,  0.0262,  0.2690
1491852971.5038990974,1491852971.5062220097, -0.2299, -0.0123,  0.0070,  0.0451,  0.0157,  0.2950
1491852971.5065920353,1491852971.5088930130, -0.2299, -0.0123,  0.0070,  0.0451,  0.0157,  0.2950
1491852971.5092608929,1491852971.5115621090, -0.2299, -0.0123,  0.0070,  0.0451,  0.0157,  0.2950
1491852971.5119309425,1491852971.5142760277, -0.2299, -0.0123,  0.0437,  0.0451,  0.0157,  0.3185
1491852971.5146460533,1491852971.5169479847, -0.2498,  0.0093,  0.0437,  0.0477,  0.0155,  0.3196
1491852971.5173149109,1491852971.5196130276, -0.2498,  0.0093,  0.0437,  0.0477,  0.0155,  0.3196
1491852971.5199820995,1491852971.5222809315, -0.2498,  0.0093,  0.0437,  0.0477,  0.0155,  0.3196
1491852971.5226509571,1491852971.5251080990, -0.2498,  0.0093,  0.0437,  0.0477,  0.0389,  0.3506
1491852971.5254869461,1491852971.5279150009, -0.2498,  0.0093,  0.0437,  0.0445,  0.0351,  0.3506
1491852971.5282909870,1491852971.5307159424, -0.2498,  0.0093,  0.0437,  0.0445,  0.0351,  0.3506
1491852971.5310919285,1491852971.5335159302, -0.2498,  0.0093,  0.0437,  0.0445,  0.0351,  0.3506
1491852971.5338919163,1491852971.5363290310, -0.2658,  0.0521,  0.0314,  0.0291,  0.0723,  0.3751
1491852971.5367059708,1491852971.5391340256, -0.2658,  0.0521,  0.0314,  0.0291,  0.0723,  0.3751
1491852971.5395081043,1491852971.5433959961, -0.2658,  0.0521,  0.0314,  0.0291,  0.0723,  0.3751
1491852971.5437951088,1491852971.5461590290, -0.2658,  0.0521,  0.0314,  0.0189,  0.0928,  0.3824
1491852971.5465300083,1491852971.5488278866, -0.2658,  0.0521,  0.0314,  0.0189,  0.0928,  0.3824
1491852971.5491979122,1491852971.5516009331, -0.2658,  0.0521,  0.0314,  0.0189,  0.0928,  0.3824
1491852971.5519719124,1491852971.5543730259, -0.2658,  0.0944,  0.0046,  0.0189,  0.0928,  0.3824
1491852971.5547649860,1491852971.5571789742, -0.2688,  0.0944,  0.0046,  0.0038,  0.0930,  0.3796
1491852971.5575559139,1491852971.5599689484, -0.2688,  0.0944,  0.0046,  0.0038,  0.0930,  0.3796
1491852971.5603439808,1491852971.5627539158, -0.2688,  0.0944,  0.0046,  0.0038,  0.0930,  0.3796
1491852971.5631310940,1491852971.5655488968, -0.2688,  0.0944,  0.0046,  0.0038,  0.0930,  0.3718
1491852971.5659248829,1491852971.5683310032, -0.2688,  0.0944,  0.0046,  0.0025,  0.0953,  0.3696
1491852971.5687060356,1491852971.5711219311, -0.2688,  0.0944,  0.0046,  0.0025,  0.0953,  0.3696
1491852971.5714979172,1491852971.5739040375, -0.2688,  0.0631, -0.0054,  0.0025,  0.0953,  0.3696
1491852971.5742909908,1491852971.5766789913, -0.2369,  0.0694, -0.0054,  0.0025,  0.0875,  0.3558
1491852971.5770559311,1491852971.5797159672, -0.2369,  0.0694, -0.0054,  0.0061,  0.0875,  0.3558
1491852971.5802509785,1491852971.5826849937, -0.2369,  0.0694, -0.0054,  0.0061,  0.0875,  0.3558
1491852971.5830628872,1491852971.5855989456, -0.2369,  0.0694, -0.0054,  0.0061,  0.0875,  0.3558
1491852971.5859789848,1491852971.5884048939, -0.2369,  0.0694, -0.0054,  0.0162,  0.0790,  0.3457
1491852971.5887830257,1491852971.5912110806, -0.2369,  0.0694, -0.0054,  0.0162,  0.0790,  0.3457
1491852971.5915889740,1491852971.5940110683, -0.2369,  0.0493, -0.0054,  0.0162,  0.0790,  0.3457
1491852971.5944321156,1491852971.5967330933, -0.1889,  0.0493, -0.0054,  0.0162,  0.0790,  0.3390
1491852971.5971019268,1491852971.5994100571, -0.1889,  0.0493, -0.0054,  0.0433,  0.0642,  0.3390
1491852971.5997810364,1491852971.6020779610, -0.1889,  0.0493, -0.0054,  0.0433,  0.0642,  0.3390
1491852971.6024470329,1491852971.6048069000, -0.1889,  0.0493, -0.0054,  0.0433,  0.0642,  0.3390
1491852971.6051850319,1491852971.6076130867, -0.1889,  0.0493, -0.0054,  0.0746,  0.0520,  0.3243
1491852971.6079890728,1491852971.6104118824, -0.1889,  0.0493, -0.0054,  0.0745,  0.0520,  0.3243
1491852971.6107890606,1491852971.6132190228, -0.1889,  0.0493, -0.0054,  0.0745,  0.0520,  0.3243
1491852971.6135950089,1491852971.6159789562, -0.1110,  0.0169, -0.0025,  0.0745,  0.0520,  0.3243
1491852971.6163499355,1491852971.6186521053, -0.1110,  0.0169, -0.0025,  0.1001,  0.0449,  0.2957
1491852971.6190230846,1491852971.6213281155, -0.1110,  0.0169, -0.0025,  0.1001,  0.0449,  0.2957
1491852971.6216990948,1491852971.6239979267, -0.1110,  0.0169, -0.0025,  0.1001,  0.0449,  0.2957
1491852971.6244370937,1491852971.6267409325, -0.1110,  0.0169, -0.0025,  0.1001,  0.0449,  0.2957
1491852971.6271119118,1491852971.6294100285, -0.1110,  0.0169, -0.0025,  0.1274,  0.0486,  0.2373
1491852971.6297810078,1491852971.6320760250, -0.1110,  0.0169, -0.0025,  0.1274,  0.0486,  0.2373
1491852971.6324450970,1491852971.6348080635, -0.0330,  0.1137, -0.0169,  0.1274,  0.0486,  0.2373
1491852971.6351768970,1491852971.6374769211, -0.0330,  0.1137, -0.0169,  0.1274,  0.0486,  0.2373
1491852971.6378469467,1491852971.6401510239, -0.0330,  0.1137, -0.0169,  0.1286,  0.0505,  0.1444
1491852971.6405189037,1491852971.6428198814, -0.0330,  0.1137, -0.0169,  0.1286,  0.0505,  0.1444
1491852971.6431889534,1491852971.6456460953, -0.0330,  0.1137, -0.0169,  0.1286,  0.0505,  0.1444
1491852971.6460170746,1491852971.6483209133, -0.0330,  0.1137, -0.0169,  0.1286,  0.0427,  0.0332
1491852971.6486890316,1491852971.6509900093, -0.0330,  0.1137, -0.0169,  0.1391,  0.0391,  0.0332
1491852971.6513609886,1491852971.6536540985, -0.1111,  0.0019, -0.0193,  0.1391,  0.0391,  0.0332
1491852971.6540699005,1491852971.6564888954, -0.1100,  0.0019, -0.0193,  0.1391,  0.0391,  0.0332
1491852971.6568660736,1491852971.6592810154, -0.1100,  0.0019, -0.0193,  0.1068,  0.0446, -0.0399
1491852971.6596570015,1491852971.6620700359, -0.1100,  0.0019, -0.0193,  0.1068,  0.0446, -0.0399
1491852971.6624479294,1491852971.6648750305, -0.1100,  0.0019, -0.0193,  0.1068,  0.0446, -0.0399
1491852971.6652529240,1491852971.6676640511, -0.1100,  0.0019, -0.0193,  0.1068,  0.0446, -0.0399
1491852971.6680419445,1491852971.6704568863, -0.1100,  0.0019, -0.0193,  0.0724,  0.0465, -0.0761
1491852971.6708359718,1491852971.6732499599, -0.1100, -0.0300, -0.0337,  0.0724,  0.0465, -0.0761
1491852971.6736249924,1491852971.6760630608, -0.1143, -0.0300, -0.0337,  0.0724,  0.0465, -0.0761
1491852971.6764369011,1491852971.6788759232, -0.1143, -0.0300, -0.0337,  0.0724,  0.0465, -0.0995
1491852971.6792540550,1491852971.6816821098, -0.1143, -0.0300, -0.0337,  0.0371,  0.0434, -0.0939
1491852971.6820590496,1491852971.6844749451, -0.1143, -0.0300, -0.0337,  0.0371,  0.0434, -0.0939
1491852971.6848440170,1491852971.6871480942, -0.1143, -0.0300, -0.0337,  0.0371,  0.0434, -0.0939
1491852971.6875169277,1491852971.6898210049, -0.1143, -0.0300, -0.0337, -0.0020,  0.0392, -0.1022
1491852971.6901919842,1491852971.6924939156, -0.1143, -0.0300, -0.0337, -0.0010,  0.0392, -0.1022
1491852971.6928660870,1491852971.6952810287, -0.0900, -0.0104, -0.0337, -0.0010,  0.0392, -0.1022
1491852971.6957769394,1491852971.6982018948, -0.0900, -0.0104, -0.0337, -0.0010,  0.0392, -0.1022
1491852971.6985778809,1491852971.7010099888, -0.0900, -0.0104, -0.0337, -0.0366,  0.0348, -0.1185
1491852971.7013869286,1491852971.7038118839, -0.0900, -0.0104, -0.0337, -0.0366,  0.0348, -0.1185
1491852971.7041969299,1491852971.7066249847, -0.0900, -0.0104, -0.0337, -0.0366,  0.0348, -0.1185
1491852971.7070009708,1491852971.7094330788, -0.0900, -0.0104, -0.0337, -0.0366,  0.0348, -0.1185
1491852971.7098081112,1491852971.7122280598, -0.0900, -0.0104, -0.0259, -0.0649,  0.0305, -0.1451
1491852971.7126030922,1491852971.7150800228, -0.0816,  0.0116, -0.0260, -0.0649,  0.0305, -0.1451
1491852971.7154550552,1491852971.7178819180, -0.0816,  0.0116, -0.0260, -0.0649,  0.0305, -0.1451
1491852971.7182569504,1491852971.7206881046, -0.0816,  0.0116, -0.0260, -0.0649,  0.0263, -0.1762
1491852971.7210640907,1491852971.7234969139, -0.0816,  0.0116, -0.0260, -0.0867,  0.0263, -0.1762
1491852971.7238729000,1491852971.7261939049, -0.0816,  0.0116, -0.0260, -0.0867,  0.0263, -0.1762
1491852971.7265648842,1491852971.7288699150, -0.0816,  0.0116, -0.0260, -0.0867,  0.0263, -0.1762
1491852971.7292389870,1491852971.7315459251, -0.0816,  0.0116, -0.0260, -0.1042,  0.0225, -0.2052
1491852971.7319169044,1491852971.7342998981, -0.0977,  0.0246, -0.0199, -0.1042,  0.0225, -0.2052
1491852971.7346789837,1491852971.7371120453, -0.0977,  0.0246, -0.0199, -0.1042,  0.0225, -0.2052
1491852971.7374880314,1491852971.7399210930, -0.0977,  0.0246, -0.0199, -0.1042,  0.0225, -0.2052
1491852971.7402958870,1491852971.7427248955, -0.0977,  0.0246, -0.0199, -0.1143,  0.0184, -0.2345
1491852971.7431030273,1491852971.7455461025, -0.0977,  0.0246, -0.0199, -0.1143,  0.0184, -0.2345
1491852971.7459230423,1491852971.7483499050, -0.0977,  0.0246, -0.0199, -0.1143,  0.0184, -0.2345
1491852971.7487249374,1491852971.7511498928, -0.0977,  0.0246, -0.0199, -0.1143,  0.0184, -0.2616
1491852971.7515270710,1491852971.7539570332, -0.1065,  0.0367, -0.0135, -0.1133,  0.0117, -0.2616
1491852971.7543909550,1491852971.7568190098, -0.1065,  0.0367, -0.0135, -0.1133,  0.0117, -0.2616
1491852971.7571959496,1491852971.7596249580, -0.1065,  0.0367, -0.0135, -0.1133,  0.0117, -0.2616
1491852971.7600018978,1491852971.7624289989, -0.1065,  0.0367, -0.0135, -0.1060,  0.0038, -0.2847
1491852971.7628068924,1491852971.7652330399, -0.1065,  0.0367, -0.0135, -0.1060,  0.0038, -0.2847
1491852971.7656049728,1491852971.7679080963, -0.1065,  0.0367, -0.0135, -0.1060,  0.0038, -0.2847
1491852971.7682769299,1491852971.7705779076, -0.1065,  0.0367, -0.0135, -0.1060,  0.0038, -0.2847
1491852971.7709479332,1491852971.7732450962, -0.1212,  0.0446, -0.0103, -0.0977, -0.0044, -0.3017
1491852971.7736148834,1491852971.7760748863, -0.1212,  0.0446, -0.0103, -0.0977, -0.0044, -0.3017
1491852971.7764549255,1491852971.7788848877, -0.1212,  0.0446, -0.0103, -0.0977, -0.0044, -0.3017
1491852971.7792611122,1491852971.7816889286, -0.1212,  0.0446, -0.0103, -0.0977, -0.0044, -0.3173
1491852971.7820661068,1491852971.7845060825, -0.1212,  0.0446, -0.0103, -0.0864, -0.0133, -0.3149
1491852971.7848830223,1491852971.7873051167, -0.1212,  0.0446, -0.0103, -0.0864, -0.0133, -0.3149
1491852971.7876789570,1491852971.7901139259, -0.1212,  0.0446, -0.0103, -0.0864, -0.0133, -0.3149
1491852971.7904911041,1491852971.7929151058, -0.1389,  0.0413, -0.0067, -0.0708, -0.0225, -0.3194
1491852971.7932898998,1491852971.7957301140, -0.1389,  0.0413, -0.0067, -0.0726, -0.0225, -0.3194
1491852971.7961070538,1491852971.7985389233, -0.1389,  0.0413, -0.0067, -0.0726, -0.0225, -0.3194
1491852971.7989149094,1491852971.8013379574, -0.1389,  0.0413, -0.0067, -0.0726, -0.0225, -0.3194
1491852971.8017139435,1491852971.8041560650, -0.1389,  0.0413, -0.0067, -0.0609, -0.0317, -0.3188
1491852971.8045330048,1491852971.8085050583, -0.1389,  0.0413, -0.0067, -0.0609, -0.0317, -0.3188
1491852971.8088870049,1491852971.8111860752, -0.1389,  0.0413, -0.0067, -0.0609, -0.0317, -0.3188
1491852971.8116879463,1491852971.8139960766, -0.1557,  0.0497, -0.0075, -0.0507, -0.0428, -0.3180
1491852971.8144729137,1491852971.8167710304, -0.1557,  0.0497, -0.0075, -0.0507, -0.0428, -0.3180
1491852971.8171410561,1491852971.8194329739, -0.1557,  0.0497, -0.0075, -0.0507, -0.0428, -0.3180
1491852971.8198039532,1491852971.8221049309, -0.1557,  0.0497, -0.0075, -0.0507, -0.0428, -0.3180
1491852971.8224749565,1491852971.8248250484, -0.1557,  0.0497, -0.0075, -0.0389, -0.0509, -0.3202
1491852971.8251938820,1491852971.8275001049, -0.1557,  0.0497, -0.0075, -0.0389, -0.0509, -0.3202
1491852971.8278698921,1491852971.8301639557, -0.1557,  0.0497, -0.0075, -0.0389, -0.0509, -0.3202
1491852971.8305330276,1491852971.8328289986, -0.1690,  0.0503, -0.0057, -0.0389, -0.0509, -0.3202
1491852971.8331999779,1491852971.8355031013, -0.1690,  0.0503, -0.0057, -0.0301, -0.0557, -0.3227
1491852971.8358740807,1491852971.8381729126, -0.1690,  0.0503, -0.0057, -0.0301, -0.0557, -0.3227
1491852971.8385438919,1491852971.8408470154, -0.1690,  0.0503, -0.0057, -0.0301, -0.0557, -0.3227
1491852971.8412170410,1491852971.8435211182, -0.1690,  0.0503, -0.0057, -0.0301, -0.0557, -0.3284
1491852971.8438909054,1491852971.8462181091, -0.1690,  0.0503, -0.0057, -0.0244, -0.0605, -0.3284
1491852971.8465900421,1491852971.8488910198, -0.1690,  0.0503, -0.0057, -0.0244, -0.0605, -0.3284
1491852971.8492610455,1491852971.8521749973, -0.1690,  0.0423, -0.0098, -0.0244, -0.0605, -0.3284
1491852971.8525509834,1491852971.8550360203, -0.1841,  0.0423, -0.0098, -0.0190, -0.0634, -0.3344
1491852971.8554060459,1491852971.8577079773, -0.1841,  0.0423, -0.0098, -0.0190, -0.0634, -0.3344
1491852971.8580780029,1491852971.8603749275, -0.1841,  0.0423, -0.0098, -0.0190, -0.0634, -0.3344
1491852971.8607439995,1491852971.8630340099, -0.1841,  0.0423, -0.0098, -0.0190, -0.0634, -0.3344
1491852971.8634030819,1491852971.8657100201, -0.1841,  0.0423, -0.0098, -0.0193, -0.0675, -0.3406
1491852971.8660819530,1491852971.8683750629, -0.1841,  0.0423, -0.0098, -0.0193, -0.0675, -0.3406
1491852971.8687450886,1491852971.8710510731, -0.1841,  0.0423, -0.0069, -0.0193, -0.0675, -0.3406
1491852971.8714199066,1491852971.8737161160, -0.2038,  0.0373, -0.0069, -0.0193, -0.0675, -0.3406
1491852971.8741140366,1491852971.8764119148, -0.2038,  0.0373, -0.0069, -0.0224, -0.0708, -0.3481
1491852971.8767809868,1491852971.8790841103, -0.2038,  0.0373, -0.0069, -0.0224, -0.0708, -0.3481
1491852971.8794529438,1491852971.8817439079, -0.2038,  0.0373, -0.0069, -0.0224, -0.0708, -0.3481
1491852971.8821148872,1491852971.8844559193, -0.2038,  0.0373, -0.0069, -0.0224, -0.0708, -0.3481
1491852971.8848249912,1491852971.8871281147, -0.2038,  0.0373, -0.0069, -0.0243, -0.0719, -0.3526
1491852971.8874979019,1491852971.8897960186, -0.2038,  0.0373, -0.0069, -0.0243, -0.0719, -0.3526
1491852971.8901650906,1491852971.8924689293, -0.2137,  0.0340, -0.0025, -0.0243, -0.0719, -0.3526
1491852971.8928389549,1491852971.8951439857, -0.2137,  0.0340, -0.0025, -0.0243, -0.0719, -0.3562
1491852971.8955130577,1491852971.8978099823, -0.2137,  0.0340, -0.0025, -0.0247, -0.0742, -0.3562
1491852971.8981819153,1491852971.9004790783, -0.2137,  0.0340, -0.0025, -0.0247, -0.0742, -0.3562
1491852971.9008491039,1491852971.9031469822, -0.2137,  0.0340, -0.0025, -0.0247, -0.0742, -0.3562
1491852971.9035151005,1491852971.9058270454, -0.2137,  0.0340, -0.0025, -0.0247, -0.0792, -0.3579
1491852971.9061949253,1491852971.9084959030, -0.2137,  0.0340, -0.0025, -0.0243, -0.0792, -0.3579
1491852971.9088640213,1491852971.9111590385, -0.2137,  0.0356,  0.0020, -0.0243, -0.0792, -0.3579
1491852971.9115281105,1491852971.9138259888, -0.2245,  0.0356,  0.0020, -0.0243, -0.0792, -0.3579
1491852971.9142019749,1491852971.9166209698, -0.2245,  0.0356,  0.0020, -0.0211, -0.0833, -0.3572
1491852971.9169979095,1491852971.9194331169, -0.2245,  0.0356,  0.0020, -0.0211, -0.0833, -0.3572
1491852971.9198079109,1491852971.9222419262, -0.2245,  0.0356,  0.0020, -0.0211, -0.0833, -0.3572
1491852971.9226191044,1491852971.9250929356, -0.2245,  0.0356,  0.0020, -0.0211, -0.0833, -0.3572
1491852971.9255909920,1491852971.9280190468, -0.2245,  0.0356,  0.0020, -0.0150, -0.0873, -0.3560
1491852971.9283950329,1491852971.9308249950, -0.2245,  0.0434,  0.0002, -0.0150, -0.0873, -0.3560
1491852971.9312019348,1491852971.9336309433, -0.2361,  0.0404,  0.0002, -0.0150, -0.0873, -0.3560
1491852971.9340090752,1491852971.9364819527, -0.2361,  0.0404,  0.0002, -0.0150, -0.0873, -0.3562
1491852971.9368579388,1491852971.9392800331, -0.2361,  0.0404,  0.0002, -0.0081, -0.0910, -0.3562
1491852971.9396579266,1491852971.9420828819, -0.2361,  0.0404,  0.0002, -0.0081, -0.0910, -0.3562
1491852971.9424600601,1491852971.9448640347, -0.2361,  0.0404,  0.0002, -0.0081, -0.0910, -0.3562
1491852971.9452319145,1491852971.9475328922, -0.2361,  0.0404,  0.0002, -0.0001, -0.0944, -0.3571
1491852971.9479029179,1491852971.9502089024, -0.2361,  0.0404, -0.0044, -0.0001, -0.0944, -0.3571
1491852971.9505789280,1491852971.9528770447, -0.2476,  0.0371, -0.0044, -0.0001, -0.0944, -0.3571
1491852971.9532461166,1491852971.9556639194, -0.2476,  0.0371, -0.0044, -0.0001, -0.0944, -0.3571
1491852971.9560420513,1491852971.9584600925, -0.2476,  0.0371, -0.0044,  0.0062, -0.0963, -0.3573
1491852971.9588370323,1491852971.9612529278, -0.2476,  0.0371, -0.0044,  0.0062, -0.0963, -0.3573
1491852971.9616320133,1491852971.9640550613, -0.2476,  0.0371, -0.0044,  0.0062, -0.0963, -0.3573
1491852971.9644320011,1491852971.9668540955, -0.2476,  0.0371, -0.0044,  0.0062, -0.0963, -0.3573
1491852971.9672300816,1491852971.9696459770, -0.2476,  0.0371, -0.0044,  0.0099, -0.0975, -0.3535
1491852971.9700241089,1491852971.9724359512, -0.2555,  0.0301, -0.0126,  0.0099, -0.0975, -0.3535
1491852971.9728140831,1491852971.9752619267, -0.2555,  0.0301, -0.0126,  0.0099, -0.0975, -0.3535
1491852971.9757020473,1491852971.9781739712, -0.2555,  0.0301, -0.0126,  0.0121, -0.0984, -0.3453
1491852971.9785459042,1491852971.9808468819, -0.2555,  0.0301, -0.0126,  0.0121, -0.0984, -0.3453
1491852971.9812180996,1491852971.9835109711, -0.2555,  0.0301, -0.0126,  0.0121, -0.0984, -0.3453
1491852971.9838809967,1491852971.9863989353, -0.2555,  0.0301, -0.0126,  0.0121, -0.0984, -0.3453
1491852971.9867680073,1491852971.9890708923, -0.2555,  0.0301, -0.0126,  0.0117, -0.0990, -0.3357
1491852971.9894409180,1491852971.9917349815, -0.2586,  0.0284, -0.0190,  0.0117, -0.0990, -0.3357
1491852971.9921050072,1491852971.9945199490, -0.2586,  0.0284, -0.0190,  0.0117, -0.0990, -0.3357
1491852971.9948899746,1491852971.9971909523, -0.2586,  0.0284, -0.0190,  0.0117, -0.0990, -0.3357
1491852971.9975590706,1491852971.9998519421, -0.2586,  0.0284, -0.0190,  0.0104, -0.0980, -0.3247
1491852972.0002200603,1491852972.0025188923, -0.2586,  0.0284, -0.0190,  0.0104, -0.0980, -0.3247
1491852972.0028879642,1491852972.0052759647, -0.2586,  0.0284, -0.0190,  0.0104, -0.0980, -0.3247
1491852972.0056469440,1491852972.0079369545, -0.2586,  0.0284, -0.0190,  0.0104, -0.0980, -0.3169
1491852972.0083050728,1491852972.0106010437, -0.2626,  0.0359, -0.0222,  0.0082, -0.0962, -0.3127
1491852972.0109701157,1491852972.0132648945, -0.2626,  0.0359, -0.0222,  0.0082, -0.0962, -0.3127
1491852972.0136339664,1491852972.0160009861, -0.2626,  0.0359, -0.0222,  0.0082, -0.0962, -0.3127
1491852972.0163710117,1491852972.0186688900, -0.2626,  0.0359, -0.0222,  0.0082, -0.0962, -0.2997
1491852972.0190410614,1491852972.0213320255, -0.2626,  0.0359, -0.0222,  0.0051, -0.0948, -0.2997
1491852972.0217039585,1491852972.0240008831, -0.2626,  0.0359, -0.0222,  0.0051, -0.0948, -0.2997
1491852972.0244259834,1491852972.0267291069, -0.2626,  0.0359, -0.0222,  0.0051, -0.0948, -0.2997
1491852972.0270979404,1491852972.0294001102, -0.2626,  0.0359, -0.0222,  0.0051, -0.0926, -0.2867
1491852972.0297698975,1491852972.0320799351, -0.2613,  0.0522, -0.0218,  0.0066, -0.0926, -0.2867
1491852972.0324480534,1491852972.0347959995, -0.2613,  0.0522, -0.0218,  0.0066, -0.0926, -0.2867
1491852972.0351760387,1491852972.0376069546, -0.2613,  0.0522, -0.0218,  0.0066, -0.0926, -0.2867
1491852972.0379838943,1491852972.0404109955, -0.2613,  0.0522, -0.0218,  0.0133, -0.0900, -0.2738
1491852972.0409009457,1491852972.0433330536, -0.2613,  0.0522, -0.0218,  0.0133, -0.0900, -0.2738
1491852972.0437109470,1491852972.0461559296, -0.2613,  0.0522, -0.0218,  0.0133, -0.0900, -0.2738
1491852972.0465319157,1491852972.0489580631, -0.2613,  0.0522, -0.0218,  0.0133, -0.0900, -0.2738
1491852972.0493330956,1491852972.0517621040, -0.2404,  0.0624, -0.0264,  0.0186, -0.0860, -0.2626
1491852972.0521390438,1491852972.0545780659, -0.2404,  0.0624, -0.0264,  0.0186, -0.0860, -0.2626
1491852972.0549581051,1491852972.0573859215, -0.2404,  0.0624, -0.0264,  0.0186, -0.0860, -0.2626
1491852972.0577630997,1491852972.0601899624, -0.2404,  0.0624, -0.0264,  0.0186, -0.0823, -0.2533
1491852972.0605659485,1491852972.0629959106, -0.2404,  0.0624, -0.0264,  0.0260, -0.0823, -0.2533
1491852972.0633730888,1491852972.0658030510, -0.2404,  0.0624, -0.0264,  0.0260, -0.0823, -0.2533
1491852972.0661799908,1491852972.0686109066, -0.2404,  0.0624, -0.0264,  0.0260, -0.0823, -0.2533
1491852972.0689868927,1491852972.0714149475, -0.2217,  0.0541, -0.0407,  0.0315, -0.0816, -0.2423
1491852972.0717909336,1491852972.0742540359, -0.2217,  0.0541, -0.0407,  0.0315, -0.0816, -0.2423
1491852972.0746250153,1491852972.0769279003, -0.2217,  0.0541, -0.0407,  0.0315, -0.0816, -0.2423
1491852972.0772969723,1491852972.0795929432, -0.2217,  0.0541, -0.0407,  0.0315, -0.0816, -0.2423
1491852972.0799589157,1491852972.0822610855, -0.2217,  0.0541, -0.0407,  0.0324, -0.0785, -0.2298
1491852972.0826299191,1491852972.0849840641, -0.2217,  0.0541, -0.0407,  0.0324, -0.0785, -0.2298
1491852972.0853590965,1491852972.0877730846, -0.2217,  0.0541, -0.0407,  0.0324, -0.0785, -0.2298
1491852972.0881490707,1491852972.0905640125, -0.2166,  0.0494, -0.0406,  0.0324, -0.0785, -0.2130
1491852972.0909390450,1491852972.0933530331, -0.2166,  0.0494, -0.0406,  0.0307, -0.0729, -0.2130
1491852972.0937290192,1491852972.0961310863, -0.2166,  0.0494, -0.0406,  0.0307, -0.0729, -0.2130
1491852972.0965049267,1491852972.0989089012, -0.2166,  0.0494, -0.0406,  0.0307, -0.0729, -0.2130
1491852972.0992829800,1491852972.1019079685, -0.2166,  0.0494, -0.0406,  0.0301, -0.0609, -0.1941
1491852972.1022961140,1491852972.1048350334, -0.2166,  0.0494, -0.0406,  0.0301, -0.0609, -0.1941
1491852972.1052100658,1491852972.1075119972, -0.2166,  0.0494, -0.0406,  0.0301, -0.0609, -0.1941
1491852972.1078839302,1491852972.1101849079, -0.2031,  0.0597, -0.0405,  0.0301, -0.0609, -0.1941
1491852972.1105539799,1491852972.1128530502, -0.2031,  0.0597, -0.0405,  0.0292, -0.0468, -0.1729
1491852972.1132218838,1491852972.1155200005, -0.2031,  0.0597, -0.0405,  0.0292, -0.0468, -0.1729
1491852972.1158890724,1491852972.1181869507, -0.2031,  0.0597, -0.0405,  0.0292, -0.0468, -0.1729
1491852972.1185560226,1491852972.1208579540, -0.2031,  0.0597, -0.0405,  0.0292, -0.0468, -0.1729
1491852972.1212270260,1491852972.1235179901, -0.2031,  0.0597, -0.0405,  0.0289, -0.0344, -0.1493
1491852972.1238870621,1491852972.1262109280, -0.2031,  0.0597, -0.0405,  0.0289, -0.0344, -0.1493
1491852972.1265799999,1491852972.1288819313, -0.2031,  0.0597, -0.0382,  0.0289, -0.0344, -0.1493
1491852972.1292510033,1491852972.1315429211, -0.1926,  0.0623, -0.0382,  0.0289, -0.0344, -0.1180
1491852972.1319119930,1491852972.1342639923, -0.1926,  0.0623, -0.0382,  0.0272, -0.0234, -0.1228
1491852972.1346321106,1491852972.1369259357, -0.1926,  0.0623, -0.0382,  0.0272, -0.0234, -0.1228
1491852972.1372940540,1491852972.1395909786, -0.1926,  0.0623, -0.0382,  0.0272, -0.0234, -0.1228
1491852972.1399610043,1491852972.1422638893, -0.1926,  0.0623, -0.0382,  0.0272, -0.0156, -0.0930
1491852972.1426329613,1491852972.1449899673, -0.1926,  0.0623, -0.0382,  0.0249, -0.0153, -0.0930
1491852972.1453649998,1491852972.1477930546, -0.1926,  0.0623, -0.0382,  0.0249, -0.0153, -0.0930
1491852972.1481680870,1491852972.1506009102, -0.1872,  0.0694, -0.0329,  0.0249, -0.0153, -0.0930
1491852972.1509790421,1491852972.1534070969, -0.1872,  0.0694, -0.0329,  0.0260, -0.0095, -0.0639
1491852972.1537840366,1491852972.1562240124, -0.1872,  0.0694, -0.0329,  0.0260, -0.0095, -0.0639
1491852972.1567111015,1491852972.1591420174, -0.1872,  0.0694, -0.0329,  0.0260, -0.0095, -0.0639
1491852972.1595180035,1491852972.1619410515, -0.1872,  0.0694, -0.0329,  0.0260, -0.0095, -0.0639
1491852972.1623189449,1491852972.1647279263, -0.1872,  0.0694, -0.0329,  0.0291, -0.0057, -0.0357
1491852972.1650979519,1491852972.1673970222, -0.1872,  0.0694, -0.0329,  0.0291, -0.0057, -0.0357
1491852972.1677660942,1491852972.1700739861, -0.1796,  0.0633, -0.0302,  0.0291, -0.0057, -0.0357
1491852972.1704430580,1491852972.1727530956, -0.1796,  0.0633, -0.0302,  0.0291, -0.0057, -0.0093
1491852972.1731240749,1491852972.1755230427, -0.1796,  0.0633, -0.0302,  0.0309, -0.0037, -0.0093
1491852972.1758999825,1491852972.1783339977, -0.1796,  0.0633, -0.0302,  0.0309, -0.0037, -0.0093
1491852972.1787109375,1491852972.1811769009, -0.1796,  0.0633, -0.0302,  0.0309, -0.0037, -0.0093
1491852972.1815528870,1491852972.1839718819, -0.1796,  0.0633, -0.0302,  0.0303, -0.0007,  0.0161
1491852972.1843979359,1491852972.1867930889, -0.1796,  0.0633, -0.0302,  0.0303, -0.0007,  0.0161
